"","subject_id","subject_language.x","survey_time","chrome","firefox","IE","safari","opera","other","don.t.know","headphones","speakers","earbuds","very.bad","bad","normal","good","very.good","distractions_yes","distractions_no","wireless","wired","very_slowly","slowly","tolerably_so","pretty_fast","no_loading_time","satisfaction","subject_language.y","X18.29yrs","X30.39yrs","X40.49yrs","X50.59yrs","X60.69yrs","more_than_69yrs","handedness_L","handedness_R","lang_other_target_no","lang_other_target_yes","other_lang_na","other_lang_native","other_lang_bcpdexp","other_lang_assezdexp","other_lang_unpeudexp","other_lang_trespeudexp","other_lang_comp_na","other_lang_comp_native","other_lang_presque_native","other_lang_avancee","other_lang_intermediare","other_lang_debutant","hear_vis_problems_yes","hear_vis_problems_no","troubles_de_lang_yes","troubles_de_lang_no","ling_course_yes","ling_course_no","phonet_course_yes","phonet_course_no","phonog_course_yes","phonog_course_no","subject_language","trial_type","tripletid","S.order","A_Order","RT","order","first_sound","second_sound","paid_attention","CORR_ANS","item_X","file_X","onset_X","offset_X","word_X","speaker_X","CV_X","context_X","phone_X","distance_OTH","CV_OTH","context_OTH","file_OTH","item_OTH","offset_OTH","onset_OTH","phone_OTH","speaker_OTH","word_OTH","distance_TGT","CV_TGT","context_TGT","file_TGT","item_TGT","offset_TGT","onset_TGT","phone_TGT","speaker_TGT","word_TGT","user_resp","corr_ans","user_corr","delta_dist_sub","delta_dist_div","log_delta_dist_div"
"1","X_USOZJQCKNP","English","0:29.1",1,0,0,0,0,0,0,1,0,0,0,0,0,1,0,0,1,1,0,0,0,1,0,0,55,"English",0,1,0,0,0,0,0,1,1,0,1,0,0,0,0,0,1,0,0,0,0,0,0,1,0,1,0,1,0,1,0,1,"English","one_play_two_responses","stimulus133_A","orderSI=25","orderAI=14","0:4.5","14;",1,0,NA,"A","amelia_consonants_38","amelia_consonants.wav",101.9725,102.63328,"EESSEE","amelia","C","I","s",4.24189271789707,"C","I","ewan.wav","ewan_103",295.6425,295.1025,"θ","ewan","EETHEE",4.12831735726253,"C","I","ewan.wav","ewan_86",252.5325,252.0025,"s","ewan","EESSEE","A","A",1,-0.11357536063454,0.97322531044801,-0.0271396609633512
"2","X_USOZJQCKNP","English","0:29.1",1,0,0,0,0,0,0,1,0,0,0,0,0,1,0,0,1,1,0,0,0,1,0,0,55,"English",0,1,0,0,0,0,0,1,1,0,1,0,0,0,0,0,1,0,0,0,0,0,0,1,0,1,0,1,0,1,0,1,"English","one_play_two_responses","stimulus137_A","orderSI=21","orderAI=15","0:4.0","15;",1,0,NA,"A","ewan_84","ewan.wav",246.8625,247.3725,"ASSAH","ewan","C","A","s",4.93025958241383,"C","A","amelia_consonants.wav","amelia_consonants_10",26.41988,25.79256,"t","amelia","ATAH",4.3503301172868,"C","A","amelia_consonants.wav","amelia_consonants_36",96.8425,96.17157,"s","amelia","ASSAH","A","A",1,-0.57992946512703,0.88237344191863,-0.125139909049468
"3","X_USOZJQCKNP","English","0:29.1",1,0,0,0,0,0,0,1,0,0,0,0,0,1,0,0,1,1,0,0,0,1,0,0,55,"English",0,1,0,0,0,0,0,1,1,0,1,0,0,0,0,0,1,0,0,0,0,0,0,1,0,1,0,1,0,1,0,1,"English","one_play_two_responses","stimulus35_B","orderSI=59","orderAI=16","0:4.2","16;",0,1,NA,"B","amelia_vowels_45","amelia_vowels.wav",117.13683,117.88562,"WHODI","amelia","V","I","u",5.34910203312549,"V","I","ewan.wav","ewan_14",40.9225,40.24068,"æ","ewan","HAEDI",5.62157808498138,"V","I","ewan.wav","ewan_45",133.1225,132.37364,"u","ewan","WHODI","B","B",1,0.27247605185589,1.05093865291193,0.049683719983721
"4","X_USOZJQCKNP","English","0:29.1",1,0,0,0,0,0,0,1,0,0,0,0,0,1,0,0,1,1,0,0,0,1,0,0,55,"English",0,1,0,0,0,0,0,1,1,0,1,0,0,0,0,0,1,0,0,0,0,0,0,1,0,1,0,1,0,1,0,1,"English","one_play_two_responses","stimulus40_A","orderSI=54","orderAI=17","0:4.5","17;",1,0,NA,"A","ewan_33","ewan.wav",97.48359,98.1925,"HOODAH","ewan","V","A","ʊ",5.5780585368176,"V","A","amelia_vowels.wav","amelia_vowels_18",47.1525,46.44523,"i","amelia","HEEDAH",4.5234798111029,"V","A","amelia_vowels.wav","amelia_vowels_33",88.0325,87.27244,"ʊ","amelia","HOODAH","A","A",1,-1.0545787257147,0.810941617275254,-0.209559216021214
"5","X_USOZJQCKNP","English","0:29.1",1,0,0,0,0,0,0,1,0,0,0,0,0,1,0,0,1,1,0,0,0,1,0,0,55,"English",0,1,0,0,0,0,0,1,1,0,1,0,0,0,0,0,1,0,0,0,0,0,0,1,0,1,0,1,0,1,0,1,"English","one_play_two_responses","stimulus144_A","orderSI=14","orderAI=18","0:4.4","18;",1,0,NA,"A","ewan_58","ewan.wav",174.5225,175.0425,"ATAH","ewan","C","A","t",5.27127097540235,"C","A","amelia_consonants.wav","amelia_consonants_52",137.43495,136.7525,"θ","amelia","ATHAH",4.89318788906241,"C","A","amelia_consonants.wav","amelia_consonants_10",26.41988,25.79256,"t","amelia","ATAH","A","A",1,-0.378083086339941,0.928274776974242,-0.0744274941462541
"6","X_USOZJQCKNP","English","0:29.1",1,0,0,0,0,0,0,1,0,0,0,0,0,1,0,0,1,1,0,0,0,1,0,0,55,"English",0,1,0,0,0,0,0,1,1,0,1,0,0,0,0,0,1,0,0,0,0,0,0,1,0,1,0,1,0,1,0,1,"English","one_play_two_responses","stimulus140_A","orderSI=18","orderAI=19","0:3.5","19;",1,0,NA,"A","amelia_consonants_10","amelia_consonants.wav",25.79256,26.41988,"ATAH","amelia","C","A","t",4.93025958241383,"C","A","ewan.wav","ewan_84",247.3725,246.8625,"s","ewan","ASSAH",4.88774087355227,"C","A","ewan.wav","ewan_58",175.0425,174.5225,"t","ewan","ATAH","A","A",1,-0.0425187088615608,0.991375969530443,-0.00866143261373677
"7","X_USOZJQCKNP","English","0:29.1",1,0,0,0,0,0,0,1,0,0,0,0,0,1,0,0,1,1,0,0,0,1,0,0,55,"English",0,1,0,0,0,0,0,1,1,0,1,0,0,0,0,0,1,0,0,0,0,0,0,1,0,1,0,1,0,1,0,1,"English","one_play_two_responses","stimulus132_A","orderSI=26","orderAI=20","0:4.6","20;",1,0,NA,"A","ewan_63","ewan.wav",187.7525,188.3425,"EETEE","ewan","C","I","t",3.87044068399469,"C","I","amelia_consonants.wav","amelia_consonants_46",122.6025,121.8625,"ʃ","amelia","EESHEE",3.87017635879234,"C","I","amelia_consonants.wav","amelia_consonants_15",39.6784,39.06797,"t","amelia","EETEE","A","A",1,-0.00026432520234998,0.999931706690806,-6.82956412884414e-05
"8","X_USOZJQCKNP","English","0:29.1",1,0,0,0,0,0,0,1,0,0,0,0,0,1,0,0,1,1,0,0,0,1,0,0,55,"English",0,1,0,0,0,0,0,1,1,0,1,0,0,0,0,0,1,0,0,0,0,0,0,1,0,1,0,1,0,1,0,1,"English","one_play_two_responses","stimulus38_B","orderSI=56","orderAI=21","0:4.1","21;",1,0,NA,"B","ewan_22","ewan.wav",63.5825,64.2525,"HEEDI","ewan","V","I","i",4.21396716064081,"V","I","amelia_vowels.wav","amelia_vowels_37",97.7525,97.03204,"ʊ","amelia","HOODI",4.00241650720463,"V","I","amelia_vowels.wav","amelia_vowels_22",58.41293,57.64913,"i","amelia","HEEDI","A","B",0,-0.211550653436181,0.949797745124333,-0.051506216923068
"9","X_USOZJQCKNP","English","0:29.1",1,0,0,0,0,0,0,1,0,0,0,0,0,1,0,0,1,1,0,0,0,1,0,0,55,"English",0,1,0,0,0,0,0,1,1,0,1,0,0,0,0,0,1,0,0,0,0,0,0,1,0,1,0,1,0,1,0,1,"English","one_play_two_responses","stimulus48_A","orderSI=46","orderAI=22","0:6.9","22;",1,0,NA,"A","amelia_vowels_45","amelia_vowels.wav",117.13683,117.88562,"WHODI","amelia","V","I","u",4.61320408216593,"V","I","ewan.wav","ewan_22",64.2525,63.5825,"i","ewan","HEEDI",5.62157808498138,"V","I","ewan.wav","ewan_45",133.1225,132.37364,"u","ewan","WHODI","A","A",1,1.00837400281545,1.2185843038494,0.197689778271213
"10","X_USOZJQCKNP","English","0:29.1",1,0,0,0,0,0,0,1,0,0,0,0,0,1,0,0,1,1,0,0,0,1,0,0,55,"English",0,1,0,0,0,0,0,1,1,0,1,0,0,0,0,0,1,0,0,0,0,0,0,1,0,1,0,1,0,1,0,1,"English","one_play_two_responses","stimulus141_A","orderSI=17","orderAI=23","0:4.5","23;",1,0,NA,"A","ewan_102","ewan.wav",292.5625,293.1425,"EETHEE","ewan","C","I","θ",5.17112595059332,"C","I","amelia_consonants.wav","amelia_consonants_15",39.6784,39.06797,"t","amelia","EETEE",3.77737559218344,"C","I","amelia_consonants.wav","amelia_consonants_54",143.47846,142.7325,"θ","amelia","EETHEE","A","A",1,-1.39375035840988,0.730474490134984,-0.314060969503145
"11","X_USOZJQCKNP","English","0:29.1",1,0,0,0,0,0,0,1,0,0,0,0,0,1,0,0,1,1,0,0,0,1,0,0,55,"English",0,1,0,0,0,0,0,1,1,0,1,0,0,0,0,0,1,0,0,0,0,0,0,1,0,1,0,1,0,1,0,1,"English","one_play_two_responses","stimulus44_A","orderSI=50","orderAI=24","0:4.5","24;",1,0,NA,"A","amelia_vowels_25","amelia_vowels.wav",66.85124,67.6025,"HUHDAH","amelia","V","A","ʌ",4.49485594689505,"V","A","ewan.wav","ewan_18",52.3425,51.6225,"i","ewan","HEEDAH",4.21712873839122,"V","A","ewan.wav","ewan_25",73.8125,73.0025,"ʌ","ewan","HUHDAH","A","A",1,-0.27772720850383,0.938212211517996,-0.0637791172718291
"12","X_USOZJQCKNP","English","0:29.1",1,0,0,0,0,0,0,1,0,0,0,0,0,1,0,0,1,1,0,0,0,1,0,0,55,"English",0,1,0,0,0,0,0,1,1,0,1,0,0,0,0,0,1,0,0,0,0,0,0,1,0,1,0,1,0,1,0,1,"English","one_play_two_responses","stimulus142_B","orderSI=16","orderAI=25","0:4.6","25;",0,1,NA,"B","amelia_consonants_54","amelia_consonants.wav",142.7325,143.47846,"EETHEE","amelia","C","I","θ",4.45685776086293,"C","I","ewan.wav","ewan_63",188.3425,187.7525,"t","ewan","EETEE",3.77737559218344,"C","I","ewan.wav","ewan_102",293.1425,292.5625,"θ","ewan","EETHEE","B","B",1,-0.67948216867949,0.847542325751062,-0.165414499085427
"13","X_USOZJQCKNP","English","0:29.1",1,0,0,0,0,0,0,1,0,0,0,0,0,1,0,0,1,1,0,0,0,1,0,0,55,"English",0,1,0,0,0,0,0,1,1,0,1,0,0,0,0,0,1,0,0,0,0,0,0,1,0,1,0,1,0,1,0,1,"English","one_play_two_responses","stimulus46_B","orderSI=48","orderAI=26","0:5.6","26;",0,1,NA,"B","ewan_18","ewan.wav",51.6225,52.3425,"HEEDAH","ewan","V","A","i",4.76018901076256,"V","A","amelia_vowels.wav","amelia_vowels_41",107.96148,107.22875,"u","amelia","WHODAH",4.1694616782718,"V","A","amelia_vowels.wav","amelia_vowels_18",47.1525,46.44523,"i","amelia","HEEDAH","B","B",1,-0.59072733249076,0.875902546904093,-0.132500442060622
"14","X_USOZJQCKNP","English","0:29.1",1,0,0,0,0,0,0,1,0,0,0,0,0,1,0,0,1,1,0,0,0,1,0,0,55,"English",0,1,0,0,0,0,0,1,1,0,1,0,0,0,0,0,1,0,0,0,0,0,0,1,0,1,0,1,0,1,0,1,"English","one_play_two_responses","stimulus136_A","orderSI=22","orderAI=27","0:5.0","27;",1,0,NA,"A","ewan_98","ewan.wav",282.1625,282.7725,"ATHAH","ewan","C","A","θ",4.36459980280171,"C","A","amelia_consonants.wav","amelia_consonants_36",96.8425,96.17157,"s","amelia","ASSAH",4.44049913535651,"C","A","amelia_consonants.wav","amelia_consonants_50",132.8825,132.2225,"θ","amelia","ATHAH","A","A",1,0.0758993325548003,1.01738975759154,0.0172402861173416
"15","X_USOZJQCKNP","English","0:29.1",1,0,0,0,0,0,0,1,0,0,0,0,0,1,0,0,1,1,0,0,0,1,0,0,55,"English",0,1,0,0,0,0,0,1,1,0,1,0,0,0,0,0,1,0,0,0,0,0,0,1,0,1,0,1,0,1,0,1,"English","one_play_two_responses","stimulus139_B","orderSI=19","orderAI=28","0:3.7","28;",0,1,NA,"B","ewan_63","ewan.wav",187.7525,188.3425,"EETEE","ewan","C","I","t",4.20067015571518,"C","I","amelia_consonants.wav","amelia_consonants_38",102.63328,101.9725,"s","amelia","EESSEE",3.87017635879234,"C","I","amelia_consonants.wav","amelia_consonants_15",39.6784,39.06797,"t","amelia","EETEE","B","B",1,-0.33049379692284,0.921323554415909,-0.0819439966946551
"16","X_USOZJQCKNP","English","0:29.1",1,0,0,0,0,0,0,1,0,0,0,0,0,1,0,0,1,1,0,0,0,1,0,0,55,"English",0,1,0,0,0,0,0,1,1,0,1,0,0,0,0,0,1,0,0,0,0,0,0,1,0,1,0,1,0,1,0,1,"English","one_play_two_responses","stimulus84_A","orderSI=42","orderAI=29","0:3.6","29;",1,0,NA,"A","amelia_consonants_10","amelia_consonants.wav",25.79256,26.41988,"ATAH","amelia","C","A","t",4.68515986865346,"C","A","ewan.wav","ewan_76",224.8825,224.3325,"f","ewan","AFAH",4.88774087355227,"C","A","ewan.wav","ewan_58",175.0425,174.5225,"t","ewan","ATAH","A","A",1,0.20258100489881,1.04323886709911,0.042330169068209
"17","X_USOZJQCKNP","English","0:29.1",1,0,0,0,0,0,0,1,0,0,0,0,0,1,0,0,1,1,0,0,0,1,0,0,55,"English",0,1,0,0,0,0,0,1,1,0,1,0,0,0,0,0,1,0,0,0,0,0,0,1,0,1,0,1,0,1,0,1,"English","one_play_two_responses","stimulus88_A","orderSI=38","orderAI=30","0:7.2","30;",1,0,NA,"A","ewan_50","ewan.wav",152.8525,153.4425,"APAH","ewan","C","A","p",5.05092946444963,"C","A","amelia_consonants.wav","amelia_consonants_20",53.6525,53.0271,"k","amelia","AKAH",4.43996685606995,"C","A","amelia_consonants.wav","amelia_consonants_2",5.58607,5.00997,"p","amelia","APAH","A","A",1,-0.61096260837968,0.879039568325025,-0.128925367150812
"18","X_USOZJQCKNP","English","0:29.1",1,0,0,0,0,0,0,1,0,0,0,0,0,1,0,0,1,1,0,0,0,1,0,0,55,"English",0,1,0,0,0,0,0,1,1,0,1,0,0,0,0,0,1,0,0,0,0,0,0,1,0,1,0,1,0,1,0,1,"English","one_play_two_responses","stimulus81_A","orderSI=45","orderAI=31","0:4.3","31;",1,0,NA,"A","amelia_consonants_30","amelia_consonants.wav",80.3525,81.0525,"EEFEE","amelia","C","I","f",4.42482534708087,"C","I","ewan.wav","ewan_63",188.3425,187.7525,"t","ewan","EETEE",4.30193895276461,"C","I","ewan.wav","ewan_78",231.0925,230.5525,"f","ewan","EEFEE","A","A",1,-0.12288639431626,0.972227967280713,-0.0281649677811364
"19","X_USOZJQCKNP","English","0:29.1",1,0,0,0,0,0,0,1,0,0,0,0,0,1,0,0,1,1,0,0,0,1,0,0,55,"English",0,1,0,0,0,0,0,1,1,0,1,0,0,0,0,0,1,0,0,0,0,0,0,1,0,1,0,1,0,1,0,1,"English","one_play_two_responses","stimulus34_B","orderSI=60","orderAI=32","0:4.4","32;",0,1,NA,"B","ewan_14","ewan.wav",40.24068,40.9225,"HAEDI","ewan","V","I","æ",5.34721754764497,"V","I","amelia_vowels.wav","amelia_vowels_45",117.88562,117.13683,"u","amelia","WHODI",3.55942647951652,"V","I","amelia_vowels.wav","amelia_vowels_14",36.2991,35.597,"æ","amelia","HAEDI","B","B",1,-1.78779106812845,0.665659559911522,-0.406976910438359
"20","X_USOZJQCKNP","English","0:29.1",1,0,0,0,0,0,0,1,0,0,0,0,0,1,0,0,1,1,0,0,0,1,0,0,55,"English",0,1,0,0,0,0,0,1,1,0,1,0,0,0,0,0,1,0,0,0,0,0,0,1,0,1,0,1,0,1,0,1,"English","one_play_two_responses","stimulus43_B","orderSI=51","orderAI=33","0:4.1","33;",0,1,NA,"B","ewan_25","ewan.wav",73.0025,73.8125,"HUHDAH","ewan","V","A","ʌ",5.69803631738779,"V","A","amelia_vowels.wav","amelia_vowels_18",47.1525,46.44523,"i","amelia","HEEDAH",4.21712873839122,"V","A","amelia_vowels.wav","amelia_vowels_25",67.6025,66.85124,"ʌ","amelia","HUHDAH","B","B",1,-1.48090757899657,0.740102116499763,-0.300967107034443
"21","X_USOZJQCKNP","English","0:29.1",1,0,0,0,0,0,0,1,0,0,0,0,0,1,0,0,1,1,0,0,0,1,0,0,55,"English",0,1,0,0,0,0,0,1,1,0,1,0,0,0,0,0,1,0,0,0,0,0,0,1,0,1,0,1,0,1,0,1,"English","one_play_two_responses","stimulus47_B","orderSI=47","orderAI=34","0:5.0","34;",0,1,NA,"B","ewan_45","ewan.wav",132.37364,133.1225,"WHODI","ewan","V","I","u",5.60104842128021,"V","I","amelia_vowels.wav","amelia_vowels_22",58.41293,57.64913,"i","amelia","HEEDI",5.62157808498138,"V","I","amelia_vowels.wav","amelia_vowels_45",117.88562,117.13683,"u","amelia","WHODI","B","B",1,0.0205296637011694,1.00366532516005,0.00365862422486353
"22","X_USOZJQCKNP","English","0:29.1",1,0,0,0,0,0,0,1,0,0,0,0,0,1,0,0,1,1,0,0,0,1,0,0,55,"English",0,1,0,0,0,0,0,1,1,0,1,0,0,0,0,0,1,0,0,0,0,0,0,1,0,1,0,1,0,1,0,1,"English","one_play_two_responses","stimulus36_A","orderSI=58","orderAI=35","0:7.5","35;",1,0,NA,"A","amelia_vowels_41","amelia_vowels.wav",107.22875,107.96148,"WHODAH","amelia","V","A","u",5.20187483772057,"V","A","ewan.wav","ewan_10",29.4125,28.6807,"æ","ewan","HAEDAH",4.27155579521872,"V","A","ewan.wav","ewan_41",121.8625,121.1525,"u","ewan","WHODAH","A","A",1,-0.93031904250185,0.821156972913729,-0.197040990590306
"23","X_USOZJQCKNP","English","0:29.1",1,0,0,0,0,0,0,1,0,0,0,0,0,1,0,0,1,1,0,0,0,1,0,0,55,"English",0,1,0,0,0,0,0,1,1,0,1,0,0,0,0,0,1,0,0,0,0,0,0,1,0,1,0,1,0,1,0,1,"English","one_play_two_responses","stimulus138_B","orderSI=20","orderAI=37","0:4.2","37;",0,1,NA,"B","amelia_consonants_38","amelia_consonants.wav",101.9725,102.63328,"EESSEE","amelia","C","I","s",4.20067015571518,"C","I","ewan.wav","ewan_63",188.3425,187.7525,"t","ewan","EETEE",4.12831735726253,"C","I","ewan.wav","ewan_86",252.5325,252.0025,"s","ewan","EESSEE","B","B",1,-0.0723527984526502,0.982775891519544,-0.0173741690393822
"24","X_USOZJQCKNP","English","0:29.1",1,0,0,0,0,0,0,1,0,0,0,0,0,1,0,0,1,1,0,0,0,1,0,0,55,"English",0,1,0,0,0,0,0,1,1,0,1,0,0,0,0,0,1,0,0,0,0,0,0,1,0,1,0,1,0,1,0,1,"English","one_play_two_responses","stimulus86_B","orderSI=40","orderAI=38","0:4.4","38;",0,1,NA,"B","amelia_consonants_20","amelia_consonants.wav",53.0271,53.6525,"AKAH","amelia","C","A","k",5.05092946444963,"C","A","ewan.wav","ewan_50",153.4425,152.8525,"p","ewan","APAH",4.72520129120029,"C","A","ewan.wav","ewan_68",201.7625,201.2425,"k","ewan","AKAH","B","B",1,-0.32572817324934,0.935511240942496,-0.0666621173674465
"25","X_USOZJQCKNP","English","0:29.1",1,0,0,0,0,0,0,1,0,0,0,0,0,1,0,0,1,1,0,0,0,1,0,0,55,"English",0,1,0,0,0,0,0,1,1,0,1,0,0,0,0,0,1,0,0,0,0,0,0,1,0,1,0,1,0,1,0,1,"English","one_play_two_responses","stimulus131_B","orderSI=27","orderAI=39","0:3.5","39;",0,1,NA,"B","amelia_consonants_10","amelia_consonants.wav",25.79256,26.41988,"ATAH","amelia","C","A","t",5.46029283580614,"C","A","ewan.wav","ewan_92",267.2825,266.7625,"ʃ","ewan","ASHAH",4.88774087355227,"C","A","ewan.wav","ewan_58",175.0425,174.5225,"t","ewan","ATAH","B","B",1,-0.57255196225387,0.89514262705851,-0.110772213561802
"26","X_USOZJQCKNP","English","0:29.1",1,0,0,0,0,0,0,1,0,0,0,0,0,1,0,0,1,1,0,0,0,1,0,0,55,"English",0,1,0,0,0,0,0,1,1,0,1,0,0,0,0,0,1,0,0,0,0,0,0,1,0,1,0,1,0,1,0,1,"English","one_play_two_responses","stimulus94_B","orderSI=32","orderAI=40","0:4.4","40;",0,1,NA,"B","amelia_consonants_22","amelia_consonants.wav",58.98421,59.67452,"EEKEE","amelia","C","I","k",5.9808650370908,"C","I","ewan.wav","ewan_87",255.0425,254.4625,"s","ewan","EESSEE",4.26172344904056,"C","I","ewan.wav","ewan_70",208.7325,208.1525,"k","ewan","EEKEE","B","B",1,-1.71914158805024,0.712559708773087,-0.338891568563716
"27","X_USOZJQCKNP","English","0:29.1",1,0,0,0,0,0,0,1,0,0,0,0,0,1,0,0,1,1,0,0,0,1,0,0,55,"English",0,1,0,0,0,0,0,1,1,0,1,0,0,0,0,0,1,0,0,0,0,0,0,1,0,1,0,1,0,1,0,1,"English","one_play_two_responses","stimulus87_B","orderSI=39","orderAI=41","0:4.1","41;",0,1,NA,"B","ewan_55","ewan.wav",166.2925,166.9025,"EEPEE","ewan","C","I","p",4.78624471313257,"C","I","amelia_consonants.wav","amelia_consonants_22",59.67452,58.98421,"k","amelia","EEKEE",4.60065817717705,"C","I","amelia_consonants.wav","amelia_consonants_7",18.54394,17.98056,"p","amelia","EEPEE","B","B",1,-0.18558653595552,0.961225021477422,-0.0395467439590305
"28","X_USOZJQCKNP","English","0:29.1",1,0,0,0,0,0,0,1,0,0,0,0,0,1,0,0,1,1,0,0,0,1,0,0,55,"English",0,1,0,0,0,0,0,1,1,0,1,0,0,0,0,0,1,0,0,0,0,0,0,1,0,1,0,1,0,1,0,1,"English","one_play_two_responses","stimulus90_B","orderSI=36","orderAI=42","0:4.2","42;",0,1,NA,"B","amelia_consonants_22","amelia_consonants.wav",58.98421,59.67452,"EEKEE","amelia","C","I","k",6.40665341827113,"C","I","ewan.wav","ewan_95",274.9925,274.4625,"ʃ","ewan","EESHEE",4.26172344904056,"C","I","ewan.wav","ewan_70",208.7325,208.1525,"k","ewan","EEKEE","B","B",1,-2.14492996923057,0.665202746395888,-0.407663402994966
"29","X_USOZJQCKNP","English","0:29.1",1,0,0,0,0,0,0,1,0,0,0,0,0,1,0,0,1,1,0,0,0,1,0,0,55,"English",0,1,0,0,0,0,0,1,1,0,1,0,0,0,0,0,1,0,0,0,0,0,0,1,0,1,0,1,0,1,0,1,"English","one_play_two_responses","stimulus143_B","orderSI=15","orderAI=43","0:3.9","43;",0,1,NA,"B","amelia_consonants_10","amelia_consonants.wav",25.79256,26.41988,"ATAH","amelia","C","A","t",4.61723047292289,"C","A","ewan.wav","ewan_100",287.7725,287.2125,"θ","ewan","ATHAH",4.88774087355227,"C","A","ewan.wav","ewan_58",175.0425,174.5225,"t","ewan","ATAH","B","B",1,0.270510400629379,1.05858715570205,0.056935147080827
"30","X_USOZJQCKNP","English","0:29.1",1,0,0,0,0,0,0,1,0,0,0,0,0,1,0,0,1,1,0,0,0,1,0,0,55,"English",0,1,0,0,0,0,0,1,1,0,1,0,0,0,0,0,1,0,0,0,0,0,0,1,0,1,0,1,0,1,0,1,"English","one_play_two_responses","stimulus135_B","orderSI=23","orderAI=44","0:4.2","44;",0,1,NA,"B","ewan_103","ewan.wav",295.1025,295.6425,"EETHEE","ewan","C","I","θ",4.24294475352099,"C","I","amelia_consonants.wav","amelia_consonants_38",102.63328,101.9725,"s","amelia","EESSEE",4.74394228667982,"C","I","amelia_consonants.wav","amelia_consonants_55",145.8925,145.1325,"θ","amelia","EETHEE","B","B",1,0.50099753315883,1.11807778848477,0.111610950563592
"31","X_USOZJQCKNP","English","0:29.1",1,0,0,0,0,0,0,1,0,0,0,0,0,1,0,0,1,1,0,0,0,1,0,0,55,"English",0,1,0,0,0,0,0,1,1,0,1,0,0,0,0,0,1,0,0,0,0,0,0,1,0,1,0,1,0,1,0,1,"English","one_play_two_responses","stimulus95_B","orderSI=31","orderAI=45","0:4.0","45;",0,1,NA,"B","ewan_82","ewan.wav",241.7525,242.2825,"ASSAH","ewan","C","A","s",5.9043911884594,"C","A","amelia_consonants.wav","amelia_consonants_20",53.6525,53.0271,"k","amelia","AKAH",4.59598069968391,"C","A","amelia_consonants.wav","amelia_consonants_34",92.1125,91.35499,"s","amelia","ASSAH","B","B",1,-1.30841048877549,0.778400440110933,-0.250514182705912
"32","X_USOZJQCKNP","English","0:29.1",1,0,0,0,0,0,0,1,0,0,0,0,0,1,0,0,1,1,0,0,0,1,0,0,55,"English",0,1,0,0,0,0,0,1,1,0,1,0,0,0,0,0,1,0,0,0,0,0,0,1,0,1,0,1,0,1,0,1,"English","one_play_two_responses","stimulus129_A","orderSI=29","orderAI=46","0:4.2","46;",1,0,NA,"A","amelia_consonants_46","amelia_consonants.wav",121.8625,122.6025,"EESHEE","amelia","C","I","ʃ",3.86297497410455,"C","I","ewan.wav","ewan_63",188.3425,187.7525,"t","ewan","EETEE",3.98598040919897,"C","I","ewan.wav","ewan_94",272.5425,271.9525,"ʃ","ewan","EESHEE","A","A",1,0.12300543509442,1.03184215168853,0.0313457015705599
"33","X_USOZJQCKNP","English","0:29.1",1,0,0,0,0,0,0,1,0,0,0,0,0,1,0,0,1,1,0,0,0,1,0,0,55,"English",0,1,0,0,0,0,0,1,1,0,1,0,0,0,0,0,1,0,0,0,0,0,0,1,0,1,0,1,0,1,0,1,"English","one_play_two_responses","stimulus37_A","orderSI=57","orderAI=47","0:4.7","47;",1,0,NA,"A","amelia_vowels_22","amelia_vowels.wav",57.64913,58.41293,"HEEDI","amelia","V","I","i",4.99244617980852,"V","I","ewan.wav","ewan_37",109.8025,109.0925,"ʊ","ewan","HOODI",4.00241650720463,"V","I","ewan.wav","ewan_22",64.2525,63.5825,"i","ewan","HEEDI","A","A",1,-0.990029672603891,0.801694472619861,-0.221027700531203
"34","X_USOZJQCKNP","English","0:29.1",1,0,0,0,0,0,0,1,0,0,0,0,0,1,0,0,1,1,0,0,0,1,0,0,55,"English",0,1,0,0,0,0,0,1,1,0,1,0,0,0,0,0,1,0,0,0,0,0,0,1,0,1,0,1,0,1,0,1,"English","one_play_two_responses","stimulus134_B","orderSI=24","orderAI=48","0:3.8","48;",0,1,NA,"B","amelia_consonants_36","amelia_consonants.wav",96.17157,96.8425,"ASSAH","amelia","C","A","s",4.36459980280171,"C","A","ewan.wav","ewan_98",282.7725,282.1625,"θ","ewan","ATHAH",4.34812189386681,"C","A","ewan.wav","ewan_84",247.3725,246.8625,"s","ewan","ASSAH","B","B",1,-0.0164779089348999,0.996224646089128,-0.0037824985474718
"35","X_USOZJQCKNP","English","0:29.1",1,0,0,0,0,0,0,1,0,0,0,0,0,1,0,0,1,1,0,0,0,1,0,0,55,"English",0,1,0,0,0,0,0,1,1,0,1,0,0,0,0,0,1,0,0,0,0,0,0,1,0,1,0,1,0,1,0,1,"English","one_play_two_responses","stimulus45_A","orderSI=49","orderAI=49","0:4.8","49;",1,0,NA,"A","amelia_vowels_18","amelia_vowels.wav",46.44523,47.1525,"HEEDAH","amelia","V","A","i",5.26378385304332,"V","A","ewan.wav","ewan_41",121.8625,121.1525,"u","ewan","WHODAH",4.1694616782718,"V","A","ewan.wav","ewan_18",52.3425,51.6225,"i","ewan","HEEDAH","A","A",1,-1.09432217477152,0.792103512354744,-0.233063198290269
"36","X_USOZJQCKNP","English","0:29.1",1,0,0,0,0,0,0,1,0,0,0,0,0,1,0,0,1,1,0,0,0,1,0,0,55,"English",0,1,0,0,0,0,0,1,1,0,1,0,0,0,0,0,1,0,0,0,0,0,0,1,0,1,0,1,0,1,0,1,"English","one_play_two_responses","stimulus33_A","orderSI=61","orderAI=50","0:4.4","50;",1,0,NA,"A","ewan_10","ewan.wav",28.6807,29.4125,"HAEDAH","ewan","V","A","æ",5.20340106703398,"V","A","amelia_vowels.wav","amelia_vowels_41",107.96148,107.22875,"u","amelia","WHODAH",3.97175722659625,"V","A","amelia_vowels.wav","amelia_vowels_10",26.0725,25.31,"æ","amelia","HAEDAH","A","A",1,-1.23164384043773,0.763300229105771,-0.270103840026086
"37","X_USOZJQCKNP","English","0:29.1",1,0,0,0,0,0,0,1,0,0,0,0,0,1,0,0,1,1,0,0,0,1,0,0,55,"English",0,1,0,0,0,0,0,1,1,0,1,0,0,0,0,0,1,0,0,0,0,0,0,1,0,1,0,1,0,1,0,1,"English","one_play_two_responses","stimulus41_A","orderSI=53","orderAI=51","0:4.5","51;",1,0,NA,"A","amelia_vowels_22","amelia_vowels.wav",57.64913,58.41293,"HEEDI","amelia","V","I","i",5.96574213884297,"V","I","ewan.wav","ewan_29",86.1325,85.39155,"ʌ","ewan","HUHDI",4.00241650720463,"V","I","ewan.wav","ewan_22",64.2525,63.5825,"i","ewan","HEEDI","A","A",1,-1.96332563163834,0.67090001781084,-0.399135157865612
"38","X_USOZJQCKNP","English","0:29.1",1,0,0,0,0,0,0,1,0,0,0,0,0,1,0,0,1,1,0,0,0,1,0,0,55,"English",0,1,0,0,0,0,0,1,1,0,1,0,0,0,0,0,1,0,0,0,0,0,0,1,0,1,0,1,0,1,0,1,"English","one_play_two_responses","stimulus85_A","orderSI=41","orderAI=52","0:4.2","52;",1,0,NA,"A","amelia_consonants_22","amelia_consonants.wav",58.98421,59.67452,"EEKEE","amelia","C","I","k",4.78624471313257,"C","I","ewan.wav","ewan_55",166.9025,166.2925,"p","ewan","EEPEE",4.26172344904056,"C","I","ewan.wav","ewan_70",208.7325,208.1525,"k","ewan","EEKEE","A","A",1,-0.52452126409201,0.890410688226446,-0.116072475244638
"39","X_USOZJQCKNP","English","0:29.1",1,0,0,0,0,0,0,1,0,0,0,0,0,1,0,0,1,1,0,0,0,1,0,0,55,"English",0,1,0,0,0,0,0,1,1,0,1,0,0,0,0,0,1,0,0,0,0,0,0,1,0,1,0,1,0,1,0,1,"English","one_play_two_responses","stimulus93_A","orderSI=33","orderAI=53","0:4.8","53;",1,0,NA,"A","ewan_70","ewan.wav",208.1525,208.7325,"EEKEE","ewan","C","I","k",4.16921794815934,"C","I","amelia_consonants.wav","amelia_consonants_39",104.88504,104.21429,"s","amelia","EESSEE",4.26172344904056,"C","I","amelia_consonants.wav","amelia_consonants_22",59.67452,58.98421,"k","amelia","EEKEE","A","A",1,0.0925055008812201,1.02218773449396,0.0219451681545989
"40","X_USOZJQCKNP","English","0:29.1",1,0,0,0,0,0,0,1,0,0,0,0,0,1,0,0,1,1,0,0,0,1,0,0,55,"English",0,1,0,0,0,0,0,1,1,0,1,0,0,0,0,0,1,0,0,0,0,0,0,1,0,1,0,1,0,1,0,1,"English","one_play_two_responses","stimulus83_B","orderSI=43","orderAI=54","0:4.5","54;",0,1,NA,"B","ewan_58","ewan.wav",174.5225,175.0425,"ATAH","ewan","C","A","t",5.34189688415539,"C","A","amelia_consonants.wav","amelia_consonants_28",75.17926,74.47714,"f","amelia","AFAH",4.89318788906241,"C","A","amelia_consonants.wav","amelia_consonants_10",26.41988,25.79256,"t","amelia","ATAH","B","B",1,-0.44870899509298,0.916001936236565,-0.0877368005148644
"41","X_USOZJQCKNP","English","0:29.1",1,0,0,0,0,0,0,1,0,0,0,0,0,1,0,0,1,1,0,0,0,1,0,0,55,"English",0,1,0,0,0,0,0,1,1,0,1,0,0,0,0,0,1,0,0,0,0,0,0,1,0,1,0,1,0,1,0,1,"English","one_play_two_responses","stimulus82_B","orderSI=44","orderAI=55","0:4.2","55;",0,1,NA,"B","ewan_78","ewan.wav",230.5525,231.0925,"EEFEE","ewan","C","I","f",5.0143894935211,"C","I","amelia_consonants.wav","amelia_consonants_15",39.6784,39.06797,"t","amelia","EETEE",4.30193895276461,"C","I","amelia_consonants.wav","amelia_consonants_30",81.0525,80.3525,"f","amelia","EEFEE","B","B",1,-0.71245054075649,0.857918787186951,-0.153245837602375
"42","X_USOZJQCKNP","English","0:29.1",1,0,0,0,0,0,0,1,0,0,0,0,0,1,0,0,1,1,0,0,0,1,0,0,55,"English",0,1,0,0,0,0,0,1,1,0,1,0,0,0,0,0,1,0,0,0,0,0,0,1,0,1,0,1,0,1,0,1,"English","one_play_two_responses","stimulus42_B","orderSI=52","orderAI=56","0:4.4","56;",0,1,NA,"B","ewan_22","ewan.wav",63.5825,64.2525,"HEEDI","ewan","V","I","i",4.94061938411503,"V","I","amelia_vowels.wav","amelia_vowels_29",77.88257,77.21549,"ʌ","amelia","HUHDI",4.00241650720463,"V","I","amelia_vowels.wav","amelia_vowels_22",58.41293,57.64913,"i","amelia","HEEDI","B","B",1,-0.938202876910401,0.810104198690778,-0.210592399230129
"43","X_USOZJQCKNP","English","0:29.1",1,0,0,0,0,0,0,1,0,0,0,0,0,1,0,0,1,1,0,0,0,1,0,0,55,"English",0,1,0,0,0,0,0,1,1,0,1,0,0,0,0,0,1,0,0,0,0,0,0,1,0,1,0,1,0,1,0,1,"English","one_play_two_responses","stimulus39_B","orderSI=55","orderAI=57","0:4.7","57;",0,1,NA,"B","amelia_vowels_33","amelia_vowels.wav",87.27244,88.0325,"HOODAH","amelia","V","A","ʊ",4.43853783429268,"V","A","ewan.wav","ewan_18",52.3425,51.6225,"i","ewan","HEEDAH",4.5234798111029,"V","A","ewan.wav","ewan_33",98.1925,97.48359,"ʊ","ewan","HOODAH","B","B",1,0.0849419768102209,1.01913737811447,0.0189565617527299
"44","X_USOZJQCKNP","English","0:29.1",1,0,0,0,0,0,0,1,0,0,0,0,0,1,0,0,1,1,0,0,0,1,0,0,55,"English",0,1,0,0,0,0,0,1,1,0,1,0,0,0,0,0,1,0,0,0,0,0,0,1,0,1,0,1,0,1,0,1,"English","one_play_two_responses","stimulus91_B","orderSI=35","orderAI=58","0:4.4","58;",0,1,NA,"B","ewan_90","ewan.wav",261.8925,262.4725,"ASHAH","ewan","C","A","ʃ",6.61298969260204,"C","A","amelia_consonants.wav","amelia_consonants_20",53.6525,53.0271,"k","amelia","AKAH",4.05922305779583,"C","A","amelia_consonants.wav","amelia_consonants_42",112.9325,112.2325,"ʃ","amelia","ASHAH","B","B",1,-2.55376663480621,0.613825704633547,-0.488044259808339
"45","X_USOZJQCKNP","English","0:29.1",1,0,0,0,0,0,0,1,0,0,0,0,0,1,0,0,1,1,0,0,0,1,0,0,55,"English",0,1,0,0,0,0,0,1,1,0,1,0,0,0,0,0,1,0,0,0,0,0,0,1,0,1,0,1,0,1,0,1,"English","one_play_two_responses","stimulus89_A","orderSI=37","orderAI=59","0:4.6","59;",1,0,NA,"A","ewan_70","ewan.wav",208.1525,208.7325,"EEKEE","ewan","C","I","k",3.95283776155374,"C","I","amelia_consonants.wav","amelia_consonants_47",124.8925,124.1225,"ʃ","amelia","EESHEE",4.26172344904056,"C","I","amelia_consonants.wav","amelia_consonants_22",59.67452,58.98421,"k","amelia","EEKEE","A","A",1,0.30888568748682,1.078142768846,0.0752399023502338
"46","X_USOZJQCKNP","English","0:29.1",1,0,0,0,0,0,0,1,0,0,0,0,0,1,0,0,1,1,0,0,0,1,0,0,55,"English",0,1,0,0,0,0,0,1,1,0,1,0,0,0,0,0,1,0,0,0,0,0,0,1,0,1,0,1,0,1,0,1,"English","one_play_two_responses","stimulus92_A","orderSI=34","orderAI=60","0:4.9","60;",1,0,NA,"A","amelia_consonants_42","amelia_consonants.wav",112.2325,112.9325,"ASHAH","amelia","C","A","ʃ",5.00549753917184,"C","A","ewan.wav","ewan_68",201.7625,201.2425,"k","ewan","AKAH",4.05922305779583,"C","A","ewan.wav","ewan_90",262.4725,261.8925,"ʃ","ewan","ASHAH","A","A",1,-0.94627448137601,0.810952962423677,-0.209545226026346
"47","X_USOZJQCKNP","English","0:29.1",1,0,0,0,0,0,0,1,0,0,0,0,0,1,0,0,1,1,0,0,0,1,0,0,55,"English",0,1,0,0,0,0,0,1,1,0,1,0,0,0,0,0,1,0,0,0,0,0,0,1,0,1,0,1,0,1,0,1,"English","one_play_two_responses","stimulus130_B","orderSI=28","orderAI=61","0:4.3","61;",0,1,NA,"B","ewan_92","ewan.wav",266.7625,267.2825,"ASHAH","ewan","C","A","ʃ",5.46029283580614,"C","A","amelia_consonants.wav","amelia_consonants_10",26.41988,25.79256,"t","amelia","ATAH",4.84368953516515,"C","A","amelia_consonants.wav","amelia_consonants_44",117.1625,116.4925,"ʃ","amelia","ASHAH","B","B",1,-0.61660330064099,0.887075049052757,-0.11982569027122
"48","X_USOZJQCKNP","English","0:29.1",1,0,0,0,0,0,0,1,0,0,0,0,0,1,0,0,1,1,0,0,0,1,0,0,55,"English",0,1,0,0,0,0,0,1,1,0,1,0,0,0,0,0,1,0,0,0,0,0,0,1,0,1,0,1,0,1,0,1,"English","one_play_two_responses","stimulus96_A","orderSI=30","orderAI=62","0:3.7","62;",1,0,NA,"A","amelia_consonants_34","amelia_consonants.wav",91.35499,92.1125,"ASSAH","amelia","C","A","s",5.18966781258765,"C","A","ewan.wav","ewan_68",201.7625,201.2425,"k","ewan","AKAH",4.59598069968391,"C","A","ewan.wav","ewan_82",242.2825,241.7525,"s","ewan","ASSAH","A","A",1,-0.59368711290374,0.88560209740906,-0.121487529242434
"49","X_USOZJQCKNP","English","0:29.1",1,0,0,0,0,0,0,1,0,0,0,0,0,1,0,0,1,1,0,0,0,1,0,0,55,"English",0,1,0,0,0,0,0,1,1,0,1,0,0,0,0,0,1,0,0,0,0,0,0,1,0,1,0,1,0,1,0,1,"English","one_play_two_responses","stimulus28_A","orderSI=100","orderAI=64","0:4.7","64;",1,0,NA,"A","amelia_vowels_33","amelia_vowels.wav",87.27244,88.0325,"HOODAH","amelia","V","A","ʊ",5.70136574458093,"V","A","ewan.wav","ewan_10",29.4125,28.6807,"æ","ewan","HAEDAH",4.5234798111029,"V","A","ewan.wav","ewan_33",98.1925,97.48359,"ʊ","ewan","HOODAH","A","A",1,-1.17788593347803,0.793402846572754,-0.231424183092924
"50","X_USOZJQCKNP","English","0:29.1",1,0,0,0,0,0,0,1,0,0,0,0,0,1,0,0,1,1,0,0,0,1,0,0,55,"English",0,1,0,0,0,0,0,1,1,0,1,0,0,0,0,0,1,0,0,0,0,0,0,1,0,1,0,1,0,1,0,1,"English","one_play_two_responses","stimulus114_B","orderSI=78","orderAI=65","0:3.8","65;",0,1,NA,"B","ewan_54","ewan.wav",163.7625,164.3725,"EEPEE","ewan","C","I","p",4.82957265052483,"C","I","amelia_consonants.wav","amelia_consonants_55",145.8925,145.1325,"θ","amelia","EETHEE",3.78397268730247,"C","I","amelia_consonants.wav","amelia_consonants_6",16.26261,15.68234,"p","amelia","EEPEE","B","B",1,-1.04559996322236,0.783500520877611,-0.243983552377589
"51","X_USOZJQCKNP","English","0:29.1",1,0,0,0,0,0,0,1,0,0,0,0,0,1,0,0,1,1,0,0,0,1,0,0,55,"English",0,1,0,0,0,0,0,1,1,0,1,0,0,0,0,0,1,0,0,0,0,0,0,1,0,1,0,1,0,1,0,1,"English","one_play_two_responses","stimulus31_B","orderSI=97","orderAI=66","0:4.4","66;",0,1,NA,"B","ewan_29","ewan.wav",85.39155,86.1325,"HUHDI","ewan","V","I","ʌ",4.11418275876179,"V","I","amelia_vowels.wav","amelia_vowels_14",36.2991,35.597,"æ","amelia","HAEDI",4.10540299709067,"V","I","amelia_vowels.wav","amelia_vowels_29",77.88257,77.21549,"ʌ","amelia","HUHDI","B","B",1,-0.0087797616711196,0.99786597674777,-0.0021363035245304
"52","X_USOZJQCKNP","English","0:29.1",1,0,0,0,0,0,0,1,0,0,0,0,0,1,0,0,1,1,0,0,0,1,0,0,55,"English",0,1,0,0,0,0,0,1,1,0,1,0,0,0,0,0,1,0,0,0,0,0,0,1,0,1,0,1,0,1,0,1,"English","one_play_two_responses","stimulus127_B","orderSI=65","orderAI=68","0:4.1","68;",0,1,NA,"B","amelia_consonants_50","amelia_consonants.wav",132.2225,132.8825,"ATHAH","amelia","C","A","θ",5.77018188580821,"C","A","ewan.wav","ewan_92",267.2825,266.7625,"ʃ","ewan","ASHAH",4.44049913535651,"C","A","ewan.wav","ewan_98",282.7725,282.1625,"θ","ewan","ATHAH","B","B",1,-1.3296827504517,0.769559647032607,-0.261936814694774
"53","X_USOZJQCKNP","English","0:29.1",1,0,0,0,0,0,0,1,0,0,0,0,0,1,0,0,1,1,0,0,0,1,0,0,55,"English",0,1,0,0,0,0,0,1,1,0,1,0,0,0,0,0,1,0,0,0,0,0,0,1,0,1,0,1,0,1,0,1,"English","one_play_two_responses","stimulus126_B","orderSI=66","orderAI=69","0:4.2","69;",0,1,NA,"B","amelia_consonants_46","amelia_consonants.wav",121.8625,122.6025,"EESHEE","amelia","C","I","ʃ",4.14323646924077,"C","I","ewan.wav","ewan_103",295.6425,295.1025,"θ","ewan","EETHEE",3.98598040919897,"C","I","ewan.wav","ewan_94",272.5425,271.9525,"ʃ","ewan","EESHEE","B","B",1,-0.1572560600418,0.962045115887239,-0.0386939314044254
"54","X_USOZJQCKNP","English","0:29.1",1,0,0,0,0,0,0,1,0,0,0,0,0,1,0,0,1,1,0,0,0,1,0,0,55,"English",0,1,0,0,0,0,0,1,1,0,1,0,0,0,0,0,1,0,0,0,0,0,0,1,0,1,0,1,0,1,0,1,"English","one_play_two_responses","stimulus23_B","orderSI=105","orderAI=70","0:4.2","70;",0,1,NA,"B","ewan_21","ewan.wav",60.9271,61.7525,"HEEDI","ewan","V","I","i",4.87945671608196,"V","I","amelia_vowels.wav","amelia_vowels_14",36.2991,35.597,"æ","amelia","HAEDI",4.02497417048881,"V","I","amelia_vowels.wav","amelia_vowels_21",56.1625,55.37294,"i","amelia","HEEDI","B","B",1,-0.85448254559315,0.824881622009905,-0.192515391415755
"55","X_USOZJQCKNP","English","0:29.1",1,0,0,0,0,0,0,1,0,0,0,0,0,1,0,0,1,1,0,0,0,1,0,0,55,"English",0,1,0,0,0,0,0,1,1,0,1,0,0,0,0,0,1,0,0,0,0,0,0,1,0,1,0,1,0,1,0,1,"English","one_play_two_responses","stimulus118_B","orderSI=74","orderAI=71","0:4.4","71;",0,1,NA,"B","ewan_54","ewan.wav",163.7625,164.3725,"EEPEE","ewan","C","I","p",4.18185788883238,"C","I","amelia_consonants.wav","amelia_consonants_15",39.6784,39.06797,"t","amelia","EETEE",3.78397268730247,"C","I","amelia_consonants.wav","amelia_consonants_6",16.26261,15.68234,"p","amelia","EEPEE","B","B",1,-0.39788520152991,0.90485444218646,-0.0999811855809545
"56","X_USOZJQCKNP","English","0:29.1",1,0,0,0,0,0,0,1,0,0,0,0,0,1,0,0,1,1,0,0,0,1,0,0,55,"English",0,1,0,0,0,0,0,1,1,0,1,0,0,0,0,0,1,0,0,0,0,0,0,1,0,1,0,1,0,1,0,1,"English","one_play_two_responses","stimulus76_A","orderSI=84","orderAI=72","0:4.8","72;",1,0,NA,"A","amelia_consonants_34","amelia_consonants.wav",91.35499,92.1125,"ASSAH","amelia","C","A","s",4.53589380437866,"C","A","ewan.wav","ewan_76",224.8825,224.3325,"f","ewan","AFAH",4.59598069968391,"C","A","ewan.wav","ewan_82",242.2825,241.7525,"s","ewan","ASSAH","A","A",1,0.0600868953052496,1.0132469801756,0.013160006186882
"57","X_USOZJQCKNP","English","0:29.1",1,0,0,0,0,0,0,1,0,0,0,0,0,1,0,0,1,1,0,0,0,1,0,0,55,"English",0,1,0,0,0,0,0,1,1,0,1,0,0,0,0,0,1,0,0,0,0,0,0,1,0,1,0,1,0,1,0,1,"English","one_play_two_responses","stimulus32_A","orderSI=96","orderAI=73","0:6.1","73;",1,0,NA,"A","amelia_vowels_29","amelia_vowels.wav",77.21549,77.88257,"HUHDI","amelia","V","I","ʌ",3.86942118192129,"V","I","ewan.wav","ewan_14",40.9225,40.24068,"æ","ewan","HAEDI",4.10540299709067,"V","I","ewan.wav","ewan_29",86.1325,85.39155,"ʌ","ewan","HUHDI","A","A",1,0.23598181516938,1.0609863346673,0.0591989798762324
"58","X_USOZJQCKNP","English","0:29.1",1,0,0,0,0,0,0,1,0,0,0,0,0,1,0,0,1,1,0,0,0,1,0,0,55,"English",0,1,0,0,0,0,0,1,1,0,1,0,0,0,0,0,1,0,0,0,0,0,0,1,0,1,0,1,0,1,0,1,"English","one_play_two_responses","stimulus70_B","orderSI=90","orderAI=74","0:4.9","74;",0,1,NA,"B","ewan_76","ewan.wav",224.3325,224.8825,"AFAH","ewan","C","A","f",4.18026540816991,"C","A","amelia_consonants.wav","amelia_consonants_42",112.9325,112.2325,"ʃ","amelia","ASHAH",4.42366378030166,"C","A","amelia_consonants.wav","amelia_consonants_28",75.17926,74.47714,"f","amelia","AFAH","B","B",1,0.24339837213175,1.05822557860945,0.0565935230058602
"59","X_USOZJQCKNP","English","0:29.1",1,0,0,0,0,0,0,1,0,0,0,0,0,1,0,0,1,1,0,0,0,1,0,0,55,"English",0,1,0,0,0,0,0,1,1,0,1,0,0,0,0,0,1,0,0,0,0,0,0,1,0,1,0,1,0,1,0,1,"English","one_play_two_responses","stimulus72_A","orderSI=88","orderAI=75","0:4.2","75;",1,0,NA,"A","amelia_consonants_47","amelia_consonants.wav",124.1225,124.8925,"EESHEE","amelia","C","I","ʃ",4.3574526787836,"C","I","ewan.wav","ewan_78",231.0925,230.5525,"f","ewan","EEFEE",4.30019492823291,"C","I","ewan.wav","ewan_95",274.9925,274.4625,"ʃ","ewan","EESHEE","A","A",1,-0.0572577505506899,0.986859811277016,-0.0132272848169355
"60","X_USOZJQCKNP","English","0:29.1",1,0,0,0,0,0,0,1,0,0,0,0,0,1,0,0,1,1,0,0,0,1,0,0,55,"English",0,1,0,0,0,0,0,1,1,0,1,0,0,0,0,0,1,0,0,0,0,0,0,1,0,1,0,1,0,1,0,1,"English","one_play_two_responses","stimulus17_A","orderSI=111","orderAI=76","0:4.8","76;",1,0,NA,"A","amelia_vowels_6","amelia_vowels.wav",14.8025,15.5725,"HADI","amelia","V","I","ɑ",4.88787396727596,"V","I","ewan.wav","ewan_45",133.1225,132.37364,"u","ewan","WHODI",4.36797913180308,"V","I","ewan.wav","ewan_6",18.1025,17.36061,"ɑ","ewan","HADI","A","A",1,-0.51989483547288,0.893635793608111,-0.112456976514451
"61","X_USOZJQCKNP","English","0:29.1",1,0,0,0,0,0,0,1,0,0,0,0,0,1,0,0,1,1,0,0,0,1,0,0,55,"English",0,1,0,0,0,0,0,1,1,0,1,0,0,0,0,0,1,0,0,0,0,0,0,1,0,1,0,1,0,1,0,1,"English","one_play_two_responses","stimulus125_A","orderSI=67","orderAI=77","0:4.3","77;",1,0,NA,"A","ewan_92","ewan.wav",266.7625,267.2825,"ASHAH","ewan","C","A","ʃ",5.77018188580821,"C","A","amelia_consonants.wav","amelia_consonants_50",132.8825,132.2225,"θ","amelia","ATHAH",4.84368953516515,"C","A","amelia_consonants.wav","amelia_consonants_44",117.1625,116.4925,"ʃ","amelia","ASHAH","A","A",1,-0.92649235064306,0.839434463422761,-0.175026871714652
"62","X_USOZJQCKNP","English","0:29.1",1,0,0,0,0,0,0,1,0,0,0,0,0,1,0,0,1,1,0,0,0,1,0,0,55,"English",0,1,0,0,0,0,0,1,1,0,1,0,0,0,0,0,1,0,0,0,0,0,0,1,0,1,0,1,0,1,0,1,"English","one_play_two_responses","stimulus20_A","orderSI=108","orderAI=78","0:4.9","78;",1,0,NA,"A","ewan_45","ewan.wav",132.37364,133.1225,"WHODI","ewan","V","I","u",4.88787396727596,"V","I","amelia_vowels.wav","amelia_vowels_6",15.5725,14.8025,"ɑ","amelia","HADI",5.62157808498138,"V","I","amelia_vowels.wav","amelia_vowels_45",117.88562,117.13683,"u","amelia","WHODI","A","A",1,0.73370411770542,1.15010700411212,0.139854985100568
"63","X_USOZJQCKNP","English","0:29.1",1,0,0,0,0,0,0,1,0,0,0,0,0,1,0,0,1,1,0,0,0,1,0,0,55,"English",0,1,0,0,0,0,0,1,1,0,1,0,0,0,0,0,1,0,0,0,0,0,0,1,0,1,0,1,0,1,0,1,"English","one_play_two_responses","stimulus26_B","orderSI=102","orderAI=79","0:8.3","79;",0,1,NA,"B","ewan_14","ewan.wav",40.24068,40.9225,"HAEDI","ewan","V","I","æ",4.75261483377338,"V","I","amelia_vowels.wav","amelia_vowels_37",97.7525,97.03204,"ʊ","amelia","HOODI",3.55942647951652,"V","I","amelia_vowels.wav","amelia_vowels_14",36.2991,35.597,"æ","amelia","HAEDI","B","B",1,-1.19318835425686,0.748940657724304,-0.289095527276166
"64","X_USOZJQCKNP","English","0:29.1",1,0,0,0,0,0,0,1,0,0,0,0,0,1,0,0,1,1,0,0,0,1,0,0,55,"English",0,1,0,0,0,0,0,1,1,0,1,0,0,0,0,0,1,0,0,0,0,0,0,1,0,1,0,1,0,1,0,1,"English","one_play_two_responses","stimulus67_B","orderSI=93","orderAI=80","0:5.2","80;",0,1,NA,"B","amelia_consonants_2","amelia_consonants.wav",5.00997,5.58607,"APAH","amelia","C","A","p",5.17762890712498,"C","A","ewan.wav","ewan_76",224.8825,224.3325,"f","ewan","AFAH",4.43996685606995,"C","A","ewan.wav","ewan_50",153.4425,152.8525,"p","ewan","APAH","B","B",1,-0.73766205105503,0.857528983964083,-0.153700299972063
"65","X_USOZJQCKNP","English","0:29.1",1,0,0,0,0,0,0,1,0,0,0,0,0,1,0,0,1,1,0,0,0,1,0,0,55,"English",0,1,0,0,0,0,0,1,1,0,1,0,0,0,0,0,1,0,0,0,0,0,0,1,0,1,0,1,0,1,0,1,"English","one_play_two_responses","stimulus74_B","orderSI=86","orderAI=81","0:6.5","81;",0,1,NA,"B","ewan_76","ewan.wav",224.3325,224.8825,"AFAH","ewan","C","A","f",4.53589380437866,"C","A","amelia_consonants.wav","amelia_consonants_34",92.1125,91.35499,"s","amelia","ASSAH",4.42366378030166,"C","A","amelia_consonants.wav","amelia_consonants_28",75.17926,74.47714,"f","amelia","AFAH","B","B",1,-0.112230024077,0.975257351931683,-0.025053892113985
"66","X_USOZJQCKNP","English","0:29.1",1,0,0,0,0,0,0,1,0,0,0,0,0,1,0,0,1,1,0,0,0,1,0,0,55,"English",0,1,0,0,0,0,0,1,1,0,1,0,0,0,0,0,1,0,0,0,0,0,0,1,0,1,0,1,0,1,0,1,"English","one_play_two_responses","stimulus71_B","orderSI=89","orderAI=82","0:6.4","82;",0,1,NA,"B","ewan_95","ewan.wav",274.4625,274.9925,"EESHEE","ewan","C","I","ʃ",5.47556389837982,"C","I","amelia_consonants.wav","amelia_consonants_30",81.0525,80.3525,"f","amelia","EEFEE",4.30019492823291,"C","I","amelia_consonants.wav","amelia_consonants_47",124.8925,124.1225,"ʃ","amelia","EESHEE","B","B",1,-1.17536897014691,0.785342844689532,-0.241634911717562
"67","X_USOZJQCKNP","English","0:29.1",1,0,0,0,0,0,0,1,0,0,0,0,0,1,0,0,1,1,0,0,0,1,0,0,55,"English",0,1,0,0,0,0,0,1,1,0,1,0,0,0,0,0,1,0,0,0,0,0,0,1,0,1,0,1,0,1,0,1,"English","one_play_two_responses","stimulus22_B","orderSI=106","orderAI=83","0:6.3","83;",0,1,NA,"B","amelia_vowels_14","amelia_vowels.wav",35.597,36.2991,"HAEDI","amelia","V","I","æ",4.87945671608196,"V","I","ewan.wav","ewan_21",61.7525,60.9271,"i","ewan","HEEDI",3.55942647951652,"V","I","ewan.wav","ewan_14",40.9225,40.24068,"æ","ewan","HAEDI","B","B",1,-1.32003023656544,0.729471883167891,-0.315434454369497
"68","X_USOZJQCKNP","English","0:29.1",1,0,0,0,0,0,0,1,0,0,0,0,0,1,0,0,1,1,0,0,0,1,0,0,55,"English",0,1,0,0,0,0,0,1,1,0,1,0,0,0,0,0,1,0,0,0,0,0,0,1,0,1,0,1,0,1,0,1,"English","one_play_two_responses","stimulus115_B","orderSI=77","orderAI=84","0:4.7","84;",0,1,NA,"B","amelia_consonants_55","amelia_consonants.wav",145.1325,145.8925,"EETHEE","amelia","C","I","θ",4.82957265052483,"C","I","ewan.wav","ewan_54",164.3725,163.7625,"p","ewan","EEPEE",4.74394228667982,"C","I","ewan.wav","ewan_103",295.6425,295.1025,"θ","ewan","EETHEE","B","B",1,-0.0856303638450102,0.982269577446836,-0.017889489516093
"69","X_USOZJQCKNP","English","0:29.1",1,0,0,0,0,0,0,1,0,0,0,0,0,1,0,0,1,1,0,0,0,1,0,0,55,"English",0,1,0,0,0,0,0,1,1,0,1,0,0,0,0,0,1,0,0,0,0,0,0,1,0,1,0,1,0,1,0,1,"English","one_play_two_responses","stimulus117_A","orderSI=75","orderAI=85","0:6.3","85;",1,0,NA,"A","amelia_consonants_6","amelia_consonants.wav",15.68234,16.26261,"EEPEE","amelia","C","I","p",4.3981574399506,"C","I","ewan.wav","ewan_63",188.3425,187.7525,"t","ewan","EETEE",3.78397268730247,"C","I","ewan.wav","ewan_54",164.3725,163.7625,"p","ewan","EEPEE","A","A",1,-0.61418475264813,0.860354077580491,-0.150411256350382
"70","X_USOZJQCKNP","English","0:29.1",1,0,0,0,0,0,0,1,0,0,0,0,0,1,0,0,1,1,0,0,0,1,0,0,55,"English",0,1,0,0,0,0,0,1,1,0,1,0,0,0,0,0,1,0,0,0,0,0,0,1,0,1,0,1,0,1,0,1,"English","one_play_two_responses","stimulus19_B","orderSI=109","orderAI=86","0:5.7","86;",0,1,NA,"B","amelia_vowels_41","amelia_vowels.wav",107.22875,107.96148,"WHODAH","amelia","V","A","u",5.59678612240767,"V","A","ewan.wav","ewan_2",7.0825,6.19383,"ɑ","ewan","HADAH",4.27155579521872,"V","A","ewan.wav","ewan_41",121.8625,121.1525,"u","ewan","WHODAH","B","B",1,-1.32523032718895,0.763215835266035,-0.270214410549112
"71","X_USOZJQCKNP","English","0:29.1",1,0,0,0,0,0,0,1,0,0,0,0,0,1,0,0,1,1,0,0,0,1,0,0,55,"English",0,1,0,0,0,0,0,1,1,0,1,0,0,0,0,0,1,0,0,0,0,0,0,1,0,1,0,1,0,1,0,1,"English","one_play_two_responses","stimulus77_A","orderSI=83","orderAI=87","0:4.5","87;",0,1,NA,"A","ewan_76","ewan.wav",224.3325,224.8825,"AFAH","ewan","C","A","f",3.9871245997249,"C","A","amelia_consonants.wav","amelia_consonants_50",132.8825,132.2225,"θ","amelia","ATHAH",4.42366378030166,"C","A","amelia_consonants.wav","amelia_consonants_28",75.17926,74.47714,"f","amelia","AFAH","B","A",0,0.43653918057676,1.10948721808365,0.103897942894812
"72","X_USOZJQCKNP","English","0:29.1",1,0,0,0,0,0,0,1,0,0,0,0,0,1,0,0,1,1,0,0,0,1,0,0,55,"English",0,1,0,0,0,0,0,1,1,0,1,0,0,0,0,0,1,0,0,0,0,0,0,1,0,1,0,1,0,1,0,1,"English","one_play_two_responses","stimulus75_B","orderSI=85","orderAI=88","0:4.3","88;",0,1,NA,"B","ewan_87","ewan.wav",254.4625,255.0425,"EESSEE","ewan","C","I","s",4.8769693297386,"C","I","amelia_consonants.wav","amelia_consonants_30",81.0525,80.3525,"f","amelia","EEFEE",4.545710011232,"C","I","amelia_consonants.wav","amelia_consonants_39",104.88504,104.21429,"s","amelia","EESSEE","B","B",1,-0.3312593185066,0.932076809159603,-0.070340054430956
"73","X_USOZJQCKNP","English","0:29.1",1,0,0,0,0,0,0,1,0,0,0,0,0,1,0,0,1,1,0,0,0,1,0,0,55,"English",0,1,0,0,0,0,0,1,1,0,1,0,0,0,0,0,1,0,0,0,0,0,0,1,0,1,0,1,0,1,0,1,"English","one_play_two_responses","stimulus66_B","orderSI=94","orderAI=89","0:4.2","89;",0,1,NA,"B","ewan_78","ewan.wav",230.5525,231.0925,"EEFEE","ewan","C","I","f",5.07681217621505,"C","I","amelia_consonants.wav","amelia_consonants_7",18.54394,17.98056,"p","amelia","EEPEE",4.30193895276461,"C","I","amelia_consonants.wav","amelia_consonants_30",81.0525,80.3525,"f","amelia","EEFEE","B","B",1,-0.77487322345044,0.847370121927942,-0.165617699933882
"74","X_USOZJQCKNP","English","0:29.1",1,0,0,0,0,0,0,1,0,0,0,0,0,1,0,0,1,1,0,0,0,1,0,0,55,"English",0,1,0,0,0,0,0,1,1,0,1,0,0,0,0,0,1,0,0,0,0,0,0,1,0,1,0,1,0,1,0,1,"English","one_play_two_responses","stimulus18_B","orderSI=110","orderAI=90","0:5.3","90;",0,1,NA,"B","ewan_2","ewan.wav",6.19383,7.0825,"HADAH","ewan","V","A","ɑ",5.60405505399112,"V","A","amelia_vowels.wav","amelia_vowels_41",107.96148,107.22875,"u","amelia","WHODAH",3.94548714771845,"V","A","amelia_vowels.wav","amelia_vowels_2",5.3325,4.61383,"ɑ","amelia","HADAH","B","B",1,-1.65856790627267,0.704041468134496,-0.350918020958707
"75","X_USOZJQCKNP","English","0:29.1",1,0,0,0,0,0,0,1,0,0,0,0,0,1,0,0,1,1,0,0,0,1,0,0,55,"English",0,1,0,0,0,0,0,1,1,0,1,0,0,0,0,0,1,0,0,0,0,0,0,1,0,1,0,1,0,1,0,1,"English","one_play_two_responses","stimulus69_A","orderSI=91","orderAI=91","0:4.5","91;",1,0,NA,"A","amelia_consonants_28","amelia_consonants.wav",74.47714,75.17926,"AFAH","amelia","C","A","f",5.64388426908056,"C","A","ewan.wav","ewan_90",262.4725,261.8925,"ʃ","ewan","ASHAH",4.42366378030166,"C","A","ewan.wav","ewan_76",224.8825,224.3325,"f","ewan","AFAH","A","A",1,-1.2202204887789,0.783797748039634,-0.243604266352101
"76","X_USOZJQCKNP","English","0:29.1",1,0,0,0,0,0,0,1,0,0,0,0,0,1,0,0,1,1,0,0,0,1,0,0,55,"English",0,1,0,0,0,0,0,1,1,0,1,0,0,0,0,0,1,0,0,0,0,0,0,1,0,1,0,1,0,1,0,1,"English","one_play_two_responses","stimulus123_B","orderSI=69","orderAI=92","0:4.3","92;",0,1,NA,"B","amelia_consonants_39","amelia_consonants.wav",104.21429,104.88504,"EESSEE","amelia","C","I","s",5.12181760478946,"C","I","ewan.wav","ewan_94",272.5425,271.9525,"ʃ","ewan","EESHEE",4.545710011232,"C","I","ewan.wav","ewan_87",255.0425,254.4625,"s","ewan","EESSEE","B","B",1,-0.57610759355746,0.887518916523162,-0.119325443467419
"77","X_USOZJQCKNP","English","0:29.1",1,0,0,0,0,0,0,1,0,0,0,0,0,1,0,0,1,1,0,0,0,1,0,0,55,"English",0,1,0,0,0,0,0,1,1,0,1,0,0,0,0,0,1,0,0,0,0,0,0,1,0,1,0,1,0,1,0,1,"English","one_play_two_responses","stimulus68_A","orderSI=92","orderAI=93","0:7.5","93;",1,0,NA,"A","ewan_50","ewan.wav",152.8525,153.4425,"APAH","ewan","C","A","p",5.12309145533948,"C","A","amelia_consonants.wav","amelia_consonants_28",75.17926,74.47714,"f","amelia","AFAH",4.43996685606995,"C","A","amelia_consonants.wav","amelia_consonants_2",5.58607,5.00997,"p","amelia","APAH","A","A",1,-0.68312459926953,0.866657738745313,-0.143111145141449
"78","X_USOZJQCKNP","English","0:29.1",1,0,0,0,0,0,0,1,0,0,0,0,0,1,0,0,1,1,0,0,0,1,0,0,55,"English",0,1,0,0,0,0,0,1,1,0,1,0,0,0,0,0,1,0,0,0,0,0,0,1,0,1,0,1,0,1,0,1,"English","one_play_two_responses","stimulus80_A","orderSI=80","orderAI=94","0:3.6","94;",1,0,NA,"A","amelia_consonants_55","amelia_consonants.wav",145.1325,145.8925,"EETHEE","amelia","C","I","θ",4.23684688473997,"C","I","ewan.wav","ewan_78",231.0925,230.5525,"f","ewan","EEFEE",4.74394228667982,"C","I","ewan.wav","ewan_103",295.6425,295.1025,"θ","ewan","EETHEE","A","A",1,0.50709540193985,1.11968697848541,0.113049162749043
"79","X_USOZJQCKNP","English","0:29.1",1,0,0,0,0,0,0,1,0,0,0,0,0,1,0,0,1,1,0,0,0,1,0,0,55,"English",0,1,0,0,0,0,0,1,1,0,1,0,0,0,0,0,1,0,0,0,0,0,0,1,0,1,0,1,0,1,0,1,"English","one_play_two_responses","stimulus124_A","orderSI=68","orderAI=95","0:4.4","95;",1,0,NA,"A","ewan_82","ewan.wav",241.7525,242.2825,"ASSAH","ewan","C","A","s",4.39910350507188,"C","A","amelia_consonants.wav","amelia_consonants_44",117.1625,116.4925,"ʃ","amelia","ASHAH",4.59598069968391,"C","A","amelia_consonants.wav","amelia_consonants_34",92.1125,91.35499,"s","amelia","ASSAH","A","A",1,0.19687719461203,1.04475393552005,0.0437813892878753
"80","X_USOZJQCKNP","English","0:29.1",1,0,0,0,0,0,0,1,0,0,0,0,0,1,0,0,1,1,0,0,0,1,0,0,55,"English",0,1,0,0,0,0,0,1,1,0,1,0,0,0,0,0,1,0,0,0,0,0,0,1,0,1,0,1,0,1,0,1,"English","one_play_two_responses","stimulus128_A","orderSI=64","orderAI=96","0:4.3","96;",1,0,NA,"A","ewan_103","ewan.wav",295.1025,295.6425,"EETHEE","ewan","C","I","θ",4.14323646924077,"C","I","amelia_consonants.wav","amelia_consonants_46",122.6025,121.8625,"ʃ","amelia","EESHEE",4.74394228667982,"C","I","amelia_consonants.wav","amelia_consonants_55",145.8925,145.1325,"θ","amelia","EETHEE","A","A",1,0.60070581743905,1.14498468091278,0.135391257801222
"81","X_USOZJQCKNP","English","0:29.1",1,0,0,0,0,0,0,1,0,0,0,0,0,1,0,0,1,1,0,0,0,1,0,0,55,"English",0,1,0,0,0,0,0,1,1,0,1,0,0,0,0,0,1,0,0,0,0,0,0,1,0,1,0,1,0,1,0,1,"English","one_play_two_responses","stimulus24_A","orderSI=104","orderAI=97","0:5.4","97;",1,0,NA,"A","ewan_17","ewan.wav",49.0225,49.8125,"HEEDAH","ewan","V","A","i",4.9565056755517,"V","A","amelia_vowels.wav","amelia_vowels_10",26.0725,25.31,"æ","amelia","HAEDAH",4.38332951004656,"V","A","amelia_vowels.wav","amelia_vowels_17",45.0725,44.25247,"i","amelia","HEEDAH","A","A",1,-0.57317616550514,0.88435881989758,-0.12289239384007
"82","X_USOZJQCKNP","English","0:29.1",1,0,0,0,0,0,0,1,0,0,0,0,0,1,0,0,1,1,0,0,0,1,0,0,55,"English",0,1,0,0,0,0,0,1,1,0,1,0,0,0,0,0,1,0,0,0,0,0,0,1,0,1,0,1,0,1,0,1,"English","one_play_two_responses","stimulus122_B","orderSI=70","orderAI=98","0:3.5","98;",0,1,NA,"B","amelia_consonants_44","amelia_consonants.wav",116.4925,117.1625,"ASHAH","amelia","C","A","ʃ",4.39910350507188,"C","A","ewan.wav","ewan_82",242.2825,241.7525,"s","ewan","ASSAH",4.84368953516515,"C","A","ewan.wav","ewan_92",267.2825,266.7625,"ʃ","ewan","ASHAH","B","B",1,0.44458603009327,1.10106287101013,0.0962759596616282
"83","X_USOZJQCKNP","English","0:29.1",1,0,0,0,0,0,0,1,0,0,0,0,0,1,0,0,1,1,0,0,0,1,0,0,55,"English",0,1,0,0,0,0,0,1,1,0,1,0,0,0,0,0,1,0,0,0,0,0,0,1,0,1,0,1,0,1,0,1,"English","one_play_two_responses","stimulus121_A","orderSI=71","orderAI=99","0:4.2","99;",1,0,NA,"A","ewan_94","ewan.wav",271.9525,272.5425,"EESHEE","ewan","C","I","ʃ",5.12181760478946,"C","I","amelia_consonants.wav","amelia_consonants_39",104.88504,104.21429,"s","amelia","EESSEE",3.98598040919897,"C","I","amelia_consonants.wav","amelia_consonants_46",122.6025,121.8625,"ʃ","amelia","EESHEE","A","A",1,-1.13583719559049,0.778235524332542,-0.250726070112826
"84","X_USOZJQCKNP","English","0:29.1",1,0,0,0,0,0,0,1,0,0,0,0,0,1,0,0,1,1,0,0,0,1,0,0,55,"English",0,1,0,0,0,0,0,1,1,0,1,0,0,0,0,0,1,0,0,0,0,0,0,1,0,1,0,1,0,1,0,1,"English","one_play_two_responses","stimulus73_A","orderSI=87","orderAI=100","0:4.9","100;",1,0,NA,"A","amelia_consonants_30","amelia_consonants.wav",80.3525,81.0525,"EEFEE","amelia","C","I","f",4.8769693297386,"C","I","ewan.wav","ewan_87",255.0425,254.4625,"s","ewan","EESSEE",4.30193895276461,"C","I","ewan.wav","ewan_78",231.0925,230.5525,"f","ewan","EEFEE","A","A",1,-0.57503037697399,0.882092681315917,-0.125458147638904
"85","X_USOZJQCKNP","English","0:29.1",1,0,0,0,0,0,0,1,0,0,0,0,0,1,0,0,1,1,0,0,0,1,0,0,55,"English",0,1,0,0,0,0,0,1,1,0,1,0,0,0,0,0,1,0,0,0,0,0,0,1,0,1,0,1,0,1,0,1,"English","one_play_two_responses","stimulus120_A","orderSI=72","orderAI=101","0:3.8","101;",1,0,NA,"A","ewan_58","ewan.wav",174.5225,175.0425,"ATAH","ewan","C","A","t",4.64855544500501,"C","A","amelia_consonants.wav","amelia_consonants_4",10.17064,9.59178,"p","amelia","APAH",4.89318788906241,"C","A","amelia_consonants.wav","amelia_consonants_10",26.41988,25.79256,"t","amelia","ATAH","A","A",1,0.2446324440574,1.05262547622623,0.0512874967856583
"86","X_USOZJQCKNP","English","0:29.1",1,0,0,0,0,0,0,1,0,0,0,0,0,1,0,0,1,1,0,0,0,1,0,0,55,"English",0,1,0,0,0,0,0,1,1,0,1,0,0,0,0,0,1,0,0,0,0,0,0,1,0,1,0,1,0,1,0,1,"English","one_play_two_responses","stimulus30_B","orderSI=98","orderAI=102","0:5.1","102;",0,1,NA,"B","ewan_10","ewan.wav",28.6807,29.4125,"HAEDAH","ewan","V","A","æ",4.17143007176004,"V","A","amelia_vowels.wav","amelia_vowels_25",67.6025,66.85124,"ʌ","amelia","HUHDAH",3.97175722659625,"V","A","amelia_vowels.wav","amelia_vowels_10",26.0725,25.31,"æ","amelia","HAEDAH","B","B",1,-0.19967284516379,0.952133239265943,-0.049050296771744
"87","X_USOZJQCKNP","English","0:29.1",1,0,0,0,0,0,0,1,0,0,0,0,0,1,0,0,1,1,0,0,0,1,0,0,55,"English",0,1,0,0,0,0,0,1,1,0,1,0,0,0,0,0,1,0,0,0,0,0,0,1,0,1,0,1,0,1,0,1,"English","one_play_two_responses","stimulus29_A","orderSI=99","orderAI=103","0:5.7","103;",0,1,NA,"A","amelia_vowels_10","amelia_vowels.wav",25.31,26.0725,"HAEDAH","amelia","V","A","æ",4.09444888809348,"V","A","ewan.wav","ewan_25",73.8125,73.0025,"ʌ","ewan","HUHDAH",3.97175722659625,"V","A","ewan.wav","ewan_10",29.4125,28.6807,"æ","ewan","HAEDAH","B","A",0,-0.12269166149723,0.970034633512214,-0.0304235034703378
"88","X_USOZJQCKNP","English","0:29.1",1,0,0,0,0,0,0,1,0,0,0,0,0,1,0,0,1,1,0,0,0,1,0,0,55,"English",0,1,0,0,0,0,0,1,1,0,1,0,0,0,0,0,1,0,0,0,0,0,0,1,0,1,0,1,0,1,0,1,"English","one_play_two_responses","stimulus79_B","orderSI=81","orderAI=104","0:4.4","104;",0,1,NA,"B","ewan_103","ewan.wav",295.1025,295.6425,"EETHEE","ewan","C","I","θ",4.62600782904531,"C","I","amelia_consonants.wav","amelia_consonants_30",81.0525,80.3525,"f","amelia","EEFEE",4.74394228667982,"C","I","amelia_consonants.wav","amelia_consonants_55",145.8925,145.1325,"θ","amelia","EETHEE","B","B",1,0.11793445763451,1.02549378686608,0.0251742398733123
"89","X_USOZJQCKNP","English","0:29.1",1,0,0,0,0,0,0,1,0,0,0,0,0,1,0,0,1,1,0,0,0,1,0,0,55,"English",0,1,0,0,0,0,0,1,1,0,1,0,0,0,0,0,1,0,0,0,0,0,0,1,0,1,0,1,0,1,0,1,"English","one_play_two_responses","stimulus65_A","orderSI=95","orderAI=105","0:3.8","105;",1,0,NA,"A","amelia_consonants_30","amelia_consonants.wav",80.3525,81.0525,"EEFEE","amelia","C","I","f",4.62519665197656,"C","I","ewan.wav","ewan_55",166.9025,166.2925,"p","ewan","EEPEE",4.30193895276461,"C","I","ewan.wav","ewan_78",231.0925,230.5525,"f","ewan","EEFEE","A","A",1,-0.32325769921195,0.930109415115613,-0.0724530490931821
"90","X_USOZJQCKNP","English","0:29.1",1,0,0,0,0,0,0,1,0,0,0,0,0,1,0,0,1,1,0,0,0,1,0,0,55,"English",0,1,0,0,0,0,0,1,1,0,1,0,0,0,0,0,1,0,0,0,0,0,0,1,0,1,0,1,0,1,0,1,"English","one_play_two_responses","stimulus21_A","orderSI=107","orderAI=106","0:5.0","106;",1,0,NA,"A","amelia_vowels_10","amelia_vowels.wav",25.31,26.0725,"HAEDAH","amelia","V","A","æ",4.9565056755517,"V","A","ewan.wav","ewan_17",49.8125,49.0225,"i","ewan","HEEDAH",3.97175722659625,"V","A","ewan.wav","ewan_10",29.4125,28.6807,"æ","ewan","HAEDAH","A","A",1,-0.98474844895545,0.801322037456188,-0.221492368447013
"91","X_USOZJQCKNP","English","0:29.1",1,0,0,0,0,0,0,1,0,0,0,0,0,1,0,0,1,1,0,0,0,1,0,0,55,"English",0,1,0,0,0,0,0,1,1,0,1,0,0,0,0,0,1,0,0,0,0,0,0,1,0,1,0,1,0,1,0,1,"English","one_play_two_responses","stimulus113_A","orderSI=79","orderAI=107","0:4.3","107;",1,0,NA,"A","ewan_52","ewan.wav",158.3825,158.9425,"APAH","ewan","C","A","p",4.98886303375492,"C","A","amelia_consonants.wav","amelia_consonants_50",132.8825,132.2225,"θ","amelia","ATHAH",4.3707724392861,"C","A","amelia_consonants.wav","amelia_consonants_4",10.17064,9.59178,"p","amelia","APAH","A","A",1,-0.61809059446882,0.876105920269451,-0.132268281805598
"92","X_USOZJQCKNP","English","0:29.1",1,0,0,0,0,0,0,1,0,0,0,0,0,1,0,0,1,1,0,0,0,1,0,0,55,"English",0,1,0,0,0,0,0,1,1,0,1,0,0,0,0,0,1,0,0,0,0,0,0,1,0,1,0,1,0,1,0,1,"English","one_play_two_responses","stimulus25_A","orderSI=103","orderAI=108","0:4.4","108;",1,0,NA,"A","ewan_10","ewan.wav",28.6807,29.4125,"HAEDAH","ewan","V","A","æ",5.70136574458093,"V","A","amelia_vowels.wav","amelia_vowels_33",88.0325,87.27244,"ʊ","amelia","HOODAH",3.97175722659625,"V","A","amelia_vowels.wav","amelia_vowels_10",26.0725,25.31,"æ","amelia","HAEDAH","A","A",1,-1.72960851798468,0.696632597263445,-0.361497127336803
"93","X_USOZJQCKNP","English","0:29.1",1,0,0,0,0,0,0,1,0,0,0,0,0,1,0,0,1,1,0,0,0,1,0,0,55,"English",0,1,0,0,0,0,0,1,1,0,1,0,0,0,0,0,1,0,0,0,0,0,0,1,0,1,0,1,0,1,0,1,"English","one_play_two_responses","stimulus27_B","orderSI=101","orderAI=109","0:4.2","109;",0,1,NA,"B","amelia_vowels_37","amelia_vowels.wav",97.03204,97.7525,"HOODI","amelia","V","I","ʊ",4.75261483377338,"V","I","ewan.wav","ewan_14",40.9225,40.24068,"æ","ewan","HAEDI",4.09929051635799,"V","I","ewan.wav","ewan_37",109.8025,109.0925,"ʊ","ewan","HOODI","B","B",1,-0.65332431741539,0.862533712437059,-0.147881043956948
"94","X_USOZJQCKNP","English","0:29.1",1,0,0,0,0,0,0,1,0,0,0,0,0,1,0,0,1,1,0,0,0,1,0,0,55,"English",0,1,0,0,0,0,0,1,1,0,1,0,0,0,0,0,1,0,0,0,0,0,0,1,0,1,0,1,0,1,0,1,"English","one_play_two_responses","stimulus116_A","orderSI=76","orderAI=110","0:4.7","110;",1,0,NA,"A","amelia_consonants_50","amelia_consonants.wav",132.2225,132.8825,"ATHAH","amelia","C","A","θ",4.98886303375492,"C","A","ewan.wav","ewan_52",158.9425,158.3825,"p","ewan","APAH",4.44049913535651,"C","A","ewan.wav","ewan_98",282.7725,282.1625,"θ","ewan","ATHAH","A","A",1,-0.54836389839841,0.890082390579146,-0.116441246856197
"95","X_USOZJQCKNP","English","0:29.1",1,0,0,0,0,0,0,1,0,0,0,0,0,1,0,0,1,1,0,0,0,1,0,0,55,"English",0,1,0,0,0,0,0,1,1,0,1,0,0,0,0,0,1,0,0,0,0,0,0,1,0,1,0,1,0,1,0,1,"English","one_play_two_responses","stimulus78_B","orderSI=82","orderAI=111","0:5.5","111;",0,1,NA,"B","amelia_consonants_28","amelia_consonants.wav",74.47714,75.17926,"AFAH","amelia","C","A","f",4.47400970497442,"C","A","ewan.wav","ewan_98",282.7725,282.1625,"θ","ewan","ATHAH",4.42366378030166,"C","A","ewan.wav","ewan_76",224.8825,224.3325,"f","ewan","AFAH","B","B",1,-0.0503459246727598,0.988747023812491,-0.0113167699553813
"96","X_USOZJQCKNP","English","0:29.1",1,0,0,0,0,0,0,1,0,0,0,0,0,1,0,0,1,1,0,0,0,1,0,0,55,"English",0,1,0,0,0,0,0,1,1,0,1,0,0,0,0,0,1,0,0,0,0,0,0,1,0,1,0,1,0,1,0,1,"English","one_play_two_responses","stimulus119_B","orderSI=73","orderAI=112","0:4.4","112;",0,1,NA,"B","amelia_consonants_10","amelia_consonants.wav",25.79256,26.41988,"ATAH","amelia","C","A","t",4.87640148238695,"C","A","ewan.wav","ewan_52",158.9425,158.3825,"p","ewan","APAH",4.88774087355227,"C","A","ewan.wav","ewan_58",175.0425,174.5225,"t","ewan","ATAH","B","B",1,0.0113393911653192,1.00232536045407,0.00232266098746293
"97","X_USOZJQCKNP","English","0:29.1",1,0,0,0,0,0,0,1,0,0,0,0,0,1,0,0,1,1,0,0,0,1,0,0,55,"English",0,1,0,0,0,0,0,1,1,0,1,0,0,0,0,0,1,0,0,0,0,0,0,1,0,1,0,1,0,1,0,1,"English","one_play_two_responses","stimulus106_B","orderSI=120","orderAI=114","0:4.0","114;",0,1,NA,"B","amelia_consonants_4","amelia_consonants.wav",9.59178,10.17064,"APAH","amelia","C","A","p",6.29388596288177,"C","A","ewan.wav","ewan_90",262.4725,261.8925,"ʃ","ewan","ASHAH",4.3707724392861,"C","A","ewan.wav","ewan_52",158.9425,158.3825,"p","ewan","APAH","B","B",1,-1.92311352359567,0.694447351773254,-0.364638927043188
"98","X_USOZJQCKNP","English","0:29.1",1,0,0,0,0,0,0,1,0,0,0,0,0,1,0,0,1,1,0,0,0,1,0,0,55,"English",0,1,0,0,0,0,0,1,1,0,1,0,0,0,0,0,1,0,0,0,0,0,0,1,0,1,0,1,0,1,0,1,"English","one_play_two_responses","stimulus59_B","orderSI=135","orderAI=115","0:4.3","115;",0,1,NA,"B","amelia_vowels_45","amelia_vowels.wav",117.13683,117.88562,"WHODI","amelia","V","I","u",4.64696923706128,"V","I","ewan.wav","ewan_38",112.2625,111.6225,"ʊ","ewan","HOODI",5.62157808498138,"V","I","ewan.wav","ewan_45",133.1225,132.37364,"u","ewan","WHODI","B","B",1,0.974608847920099,1.20972999781174,0.190397192404357
"99","X_USOZJQCKNP","English","0:29.1",1,0,0,0,0,0,0,1,0,0,0,0,0,1,0,0,1,1,0,0,0,1,0,0,55,"English",0,1,0,0,0,0,0,1,1,0,1,0,0,0,0,0,1,0,0,0,0,0,0,1,0,1,0,1,0,1,0,1,"English","one_play_two_responses","stimulus10_B","orderSI=152","orderAI=116","0:4.7","116;",0,1,NA,"B","ewan_2","ewan.wav",6.19383,7.0825,"HADAH","ewan","V","A","ɑ",5.56413495251381,"V","A","amelia_vowels.wav","amelia_vowels_33",88.0325,87.27244,"ʊ","amelia","HOODAH",3.94548714771845,"V","A","amelia_vowels.wav","amelia_vowels_2",5.3325,4.61383,"ɑ","amelia","HADAH","B","B",1,-1.61864780479536,0.709092640884982,-0.343769096832115
"100","X_USOZJQCKNP","English","0:29.1",1,0,0,0,0,0,0,1,0,0,0,0,0,1,0,0,1,1,0,0,0,1,0,0,55,"English",0,1,0,0,0,0,0,1,1,0,1,0,0,0,0,0,1,0,0,0,0,0,0,1,0,1,0,1,0,1,0,1,"English","one_play_two_responses","stimulus62_B","orderSI=132","orderAI=117","0:3.6","117;",0,1,NA,"B","amelia_consonants_28","amelia_consonants.wav",74.47714,75.17926,"AFAH","amelia","C","A","f",4.96804568158594,"C","A","ewan.wav","ewan_66",196.7225,196.2025,"k","ewan","AKAH",4.42366378030166,"C","A","ewan.wav","ewan_76",224.8825,224.3325,"f","ewan","AFAH","B","B",1,-0.54438190128428,0.89042333018353,-0.116058277450847
"101","X_USOZJQCKNP","English","0:29.1",1,0,0,0,0,0,0,1,0,0,0,0,0,1,0,0,1,1,0,0,0,1,0,0,55,"English",0,1,0,0,0,0,0,1,1,0,1,0,0,0,0,0,1,0,0,0,0,0,0,1,0,1,0,1,0,1,0,1,"English","one_play_two_responses","stimulus108_A","orderSI=118","orderAI=118","0:4.0","118;",1,0,NA,"A","ewan_90","ewan.wav",261.8925,262.4725,"ASHAH","ewan","C","A","ʃ",6.29561532691618,"C","A","amelia_consonants.wav","amelia_consonants_4",10.17064,9.59178,"p","amelia","APAH",4.05922305779583,"C","A","amelia_consonants.wav","amelia_consonants_42",112.9325,112.2325,"ʃ","amelia","ASHAH","A","A",1,-2.23639226912035,0.644769867123407,-0.43886182101041
"102","X_USOZJQCKNP","English","0:29.1",1,0,0,0,0,0,0,1,0,0,0,0,0,1,0,0,1,1,0,0,0,1,0,0,55,"English",0,1,0,0,0,0,0,1,1,0,1,0,0,0,0,0,1,0,0,0,0,0,0,1,0,1,0,1,0,1,0,1,"English","one_play_two_responses","stimulus1_A","orderSI=161","orderAI=119","0:6.5","119;",1,0,NA,"A","ewan_6","ewan.wav",17.36061,18.1025,"HADI","ewan","V","I","ɑ",4.0806309317826,"V","I","amelia_vowels.wav","amelia_vowels_13",34.29433,33.58525,"æ","amelia","HAEDI",4.36797913180308,"V","I","amelia_vowels.wav","amelia_vowels_6",15.5725,14.8025,"ɑ","amelia","HADI","A","A",1,0.28734820002048,1.07041759101085,0.0680488443102716
"103","X_USOZJQCKNP","English","0:29.1",1,0,0,0,0,0,0,1,0,0,0,0,0,1,0,0,1,1,0,0,0,1,0,0,55,"English",0,1,0,0,0,0,0,1,1,0,1,0,0,0,0,0,1,0,0,0,0,0,0,1,0,1,0,1,0,1,0,1,"English","one_play_two_responses","stimulus112_A","orderSI=114","orderAI=122","0:4.0","122;",1,0,NA,"A","ewan_87","ewan.wav",254.4625,255.0425,"EESSEE","ewan","C","I","s",6.06079308488325,"C","I","amelia_consonants.wav","amelia_consonants_6",16.26261,15.68234,"p","amelia","EEPEE",4.545710011232,"C","I","amelia_consonants.wav","amelia_consonants_39",104.88504,104.21429,"s","amelia","EESSEE","A","A",1,-1.51508307365125,0.75001900701244,-0.287656730089648
"104","X_USOZJQCKNP","English","0:29.1",1,0,0,0,0,0,0,1,0,0,0,0,0,1,0,0,1,1,0,0,0,1,0,0,55,"English",0,1,0,0,0,0,0,1,1,0,1,0,0,0,0,0,1,0,0,0,0,0,0,1,0,1,0,1,0,1,0,1,"English","one_play_two_responses","stimulus109_A","orderSI=117","orderAI=123","0:3.8","123;",1,0,NA,"A","amelia_consonants_4","amelia_consonants.wav",9.59178,10.17064,"APAH","amelia","C","A","p",5.51897827494464,"C","A","ewan.wav","ewan_82",242.2825,241.7525,"s","ewan","ASSAH",4.3707724392861,"C","A","ewan.wav","ewan_52",158.9425,158.3825,"p","ewan","APAH","A","A",1,-1.14820583565854,0.791953187989301,-0.233252994988659
"105","X_USOZJQCKNP","English","0:29.1",1,0,0,0,0,0,0,1,0,0,0,0,0,1,0,0,1,1,0,0,0,1,0,0,55,"English",0,1,0,0,0,0,0,1,1,0,1,0,0,0,0,0,1,0,0,0,0,0,0,1,0,1,0,1,0,1,0,1,"English","one_play_two_responses","stimulus57_A","orderSI=137","orderAI=124","0:6.6","124;",0,1,NA,"A","amelia_vowels_34","amelia_vowels.wav",89.37938,90.0925,"HOODAH","amelia","V","A","ʊ",4.47514979806611,"V","A","ewan.wav","ewan_41",121.8625,121.1525,"u","ewan","WHODAH",4.92001344039815,"V","A","ewan.wav","ewan_34",100.7325,99.9925,"ʊ","ewan","HOODAH","B","A",0,0.44486364233204,1.09940754218424,0.0947714366939837
"106","X_USOZJQCKNP","English","0:29.1",1,0,0,0,0,0,0,1,0,0,0,0,0,1,0,0,1,1,0,0,0,1,0,0,55,"English",0,1,0,0,0,0,0,1,1,0,1,0,0,0,0,0,1,0,0,0,0,0,0,1,0,1,0,1,0,1,0,1,"English","one_play_two_responses","stimulus54_B","orderSI=140","orderAI=125","0:4.5","125;",0,1,NA,"B","ewan_34","ewan.wav",99.9925,100.7325,"HOODAH","ewan","V","A","ʊ",5.05088890549519,"V","A","amelia_vowels.wav","amelia_vowels_41",107.96148,107.22875,"u","amelia","WHODAH",4.92001344039815,"V","A","amelia_vowels.wav","amelia_vowels_34",90.0925,89.37938,"ʊ","amelia","HOODAH","B","B",1,-0.130875465097041,0.974088627260312,-0.0262529863988187
"107","X_USOZJQCKNP","English","0:29.1",1,0,0,0,0,0,0,1,0,0,0,0,0,1,0,0,1,1,0,0,0,1,0,0,55,"English",0,1,0,0,0,0,0,1,1,0,1,0,0,0,0,0,1,0,0,0,0,0,0,1,0,1,0,1,0,1,0,1,"English","one_play_two_responses","stimulus53_A","orderSI=141","orderAI=126","0:5.0","126;",1,0,NA,"A","amelia_vowels_34","amelia_vowels.wav",89.37938,90.0925,"HOODAH","amelia","V","A","ʊ",4.47514979806611,"V","A","ewan.wav","ewan_41",121.8625,121.1525,"u","ewan","WHODAH",4.92001344039815,"V","A","ewan.wav","ewan_34",100.7325,99.9925,"ʊ","ewan","HOODAH","A","A",1,0.44486364233204,1.09940754218424,0.0947714366939837
"108","X_USOZJQCKNP","English","0:29.1",1,0,0,0,0,0,0,1,0,0,0,0,0,1,0,0,1,1,0,0,0,1,0,0,55,"English",0,1,0,0,0,0,0,1,1,0,1,0,0,0,0,0,1,0,0,0,0,0,0,1,0,1,0,1,0,1,0,1,"English","one_play_two_responses","stimulus7_B","orderSI=155","orderAI=127","0:5.5","127;",0,1,NA,"B","amelia_vowels_17","amelia_vowels.wav",44.25247,45.0725,"HEEDAH","amelia","V","A","i",6.0932408431895,"V","A","ewan.wav","ewan_2",7.0825,6.19383,"ɑ","ewan","HADAH",4.38332951004656,"V","A","ewan.wav","ewan_17",49.8125,49.0225,"i","ewan","HEEDAH","B","B",1,-1.70991133314294,0.719375718579361,-0.329371500612503
"109","X_USOZJQCKNP","English","0:29.1",1,0,0,0,0,0,0,1,0,0,0,0,0,1,0,0,1,1,0,0,0,1,0,0,55,"English",0,1,0,0,0,0,0,1,1,0,1,0,0,0,0,0,1,0,0,0,0,0,0,1,0,1,0,1,0,1,0,1,"English","one_play_two_responses","stimulus4_A","orderSI=158","orderAI=128","0:5.5","128;",1,0,NA,"A","amelia_vowels_13","amelia_vowels.wav",33.58525,34.29433,"HAEDI","amelia","V","I","æ",4.08157703136688,"V","I","ewan.wav","ewan_6",18.1025,17.36061,"ɑ","ewan","HADI",3.72513516879343,"V","I","ewan.wav","ewan_13",38.4325,37.7225,"æ","ewan","HAEDI","A","A",1,-0.35644186257345,0.91267055360362,-0.0913803029318638
"110","X_USOZJQCKNP","English","0:29.1",1,0,0,0,0,0,0,1,0,0,0,0,0,1,0,0,1,1,0,0,0,1,0,0,55,"English",0,1,0,0,0,0,0,1,1,0,1,0,0,0,0,0,1,0,0,0,0,0,0,1,0,1,0,1,0,1,0,1,"English","one_play_two_responses","stimulus101_A","orderSI=125","orderAI=129","0:3.9","129;",1,0,NA,"A","ewan_70","ewan.wav",208.1525,208.7325,"EEKEE","ewan","C","I","k",4.10109735361206,"C","I","amelia_consonants.wav","amelia_consonants_15",39.6784,39.06797,"t","amelia","EETEE",4.26172344904056,"C","I","amelia_consonants.wav","amelia_consonants_22",59.67452,58.98421,"k","amelia","EEKEE","A","A",1,0.1606260954285,1.03916661361063,0.038419058847613
"111","X_USOZJQCKNP","English","0:29.1",1,0,0,0,0,0,0,1,0,0,0,0,0,1,0,0,1,1,0,0,0,1,0,0,55,"English",0,1,0,0,0,0,0,1,1,0,1,0,0,0,0,0,1,0,0,0,0,0,0,1,0,1,0,1,0,1,0,1,"English","one_play_two_responses","stimulus64_A","orderSI=130","orderAI=130","0:4.4","130;",1,0,NA,"A","ewan_66","ewan.wav",196.2025,196.7225,"AKAH","ewan","C","A","k",4.96206022910055,"C","A","amelia_consonants.wav","amelia_consonants_28",75.17926,74.47714,"f","amelia","AFAH",4.74095377985087,"C","A","amelia_consonants.wav","amelia_consonants_18",48.5625,47.94524,"k","amelia","AKAH","A","A",1,-0.22110644924968,0.955440595429903,-0.0455826884224791
"112","X_USOZJQCKNP","English","0:29.1",1,0,0,0,0,0,0,1,0,0,0,0,0,1,0,0,1,1,0,0,0,1,0,0,55,"English",0,1,0,0,0,0,0,1,1,0,1,0,0,0,0,0,1,0,0,0,0,0,0,1,0,1,0,1,0,1,0,1,"English","one_play_two_responses","stimulus111_B","orderSI=115","orderAI=131","0:3.9","131;",0,1,NA,"B","ewan_82","ewan.wav",241.7525,242.2825,"ASSAH","ewan","C","A","s",5.51209473645785,"C","A","amelia_consonants.wav","amelia_consonants_4",10.17064,9.59178,"p","amelia","APAH",4.59598069968391,"C","A","amelia_consonants.wav","amelia_consonants_34",92.1125,91.35499,"s","amelia","ASSAH","B","B",1,-0.91611403677394,0.833799293993512,-0.181762560269413
"113","X_USOZJQCKNP","English","0:29.1",1,0,0,0,0,0,0,1,0,0,0,0,0,1,0,0,1,1,0,0,0,1,0,0,55,"English",0,1,0,0,0,0,0,1,1,0,1,0,0,0,0,0,1,0,0,0,0,0,0,1,0,1,0,1,0,1,0,1,"English","one_play_two_responses","stimulus105_A","orderSI=121","orderAI=132","0:4.2","132;",1,0,NA,"A","ewan_54","ewan.wav",163.7625,164.3725,"EEPEE","ewan","C","I","p",4.52662781355239,"C","I","amelia_consonants.wav","amelia_consonants_47",124.8925,124.1225,"ʃ","amelia","EESHEE",3.78397268730247,"C","I","amelia_consonants.wav","amelia_consonants_6",16.26261,15.68234,"p","amelia","EEPEE","A","A",1,-0.74265512624992,0.835936340066116,-0.179202817043133
"114","X_USOZJQCKNP","English","0:29.1",1,0,0,0,0,0,0,1,0,0,0,0,0,1,0,0,1,1,0,0,0,1,0,0,55,"English",0,1,0,0,0,0,0,1,1,0,1,0,0,0,0,0,1,0,0,0,0,0,0,1,0,1,0,1,0,1,0,1,"English","one_play_two_responses","stimulus13_A","orderSI=149","orderAI=133","0:5.1","133;",1,0,NA,"A","ewan_2","ewan.wav",6.19383,7.0825,"HADAH","ewan","V","A","ɑ",4.07069799926636,"V","A","amelia_vowels.wav","amelia_vowels_25",67.6025,66.85124,"ʌ","amelia","HUHDAH",3.94548714771845,"V","A","amelia_vowels.wav","amelia_vowels_2",5.3325,4.61383,"ɑ","amelia","HADAH","A","A",1,-0.12521085154791,0.969240938146117,-0.0312420518210848
"115","X_USOZJQCKNP","English","0:29.1",1,0,0,0,0,0,0,1,0,0,0,0,0,1,0,0,1,1,0,0,0,1,0,0,55,"English",0,1,0,0,0,0,0,1,1,0,1,0,0,0,0,0,1,0,0,0,0,0,0,1,0,1,0,1,0,1,0,1,"English","one_play_two_responses","stimulus98_B","orderSI=128","orderAI=134","0:3.5","134;",0,1,NA,"B","amelia_consonants_20","amelia_consonants.wav",53.0271,53.6525,"AKAH","amelia","C","A","k",5.37876350609218,"C","A","ewan.wav","ewan_98",282.7725,282.1625,"θ","ewan","ATHAH",4.72520129120029,"C","A","ewan.wav","ewan_68",201.7625,201.2425,"k","ewan","AKAH","B","B",1,-0.65356221489189,0.878492108055756,-0.129548354826462
"116","X_USOZJQCKNP","English","0:29.1",1,0,0,0,0,0,0,1,0,0,0,0,0,1,0,0,1,1,0,0,0,1,0,0,55,"English",0,1,0,0,0,0,0,1,1,0,1,0,0,0,0,0,1,0,0,0,0,0,0,1,0,1,0,1,0,1,0,1,"English","one_play_two_responses","stimulus3_B","orderSI=159","orderAI=136","0:4.5","136;",0,1,NA,"B","amelia_vowels_9","amelia_vowels.wav",23.06915,23.8525,"HAEDAH","amelia","V","A","æ",4.21551382122395,"V","A","ewan.wav","ewan_2",7.0825,6.19383,"ɑ","ewan","HADAH",4.01851230937226,"V","A","ewan.wav","ewan_9",26.8525,26.1325,"æ","ewan","HAEDAH","B","B",1,-0.19700151185169,0.95326749710561,-0.0478597252011592
"117","X_USOZJQCKNP","English","0:29.1",1,0,0,0,0,0,0,1,0,0,0,0,0,1,0,0,1,1,0,0,0,1,0,0,55,"English",0,1,0,0,0,0,0,1,1,0,1,0,0,0,0,0,1,0,0,0,0,0,0,1,0,1,0,1,0,1,0,1,"English","one_play_two_responses","stimulus6_B","orderSI=156","orderAI=137","0:4.7","137;",0,1,NA,"B","amelia_vowels_6","amelia_vowels.wav",14.8025,15.5725,"HADI","amelia","V","I","ɑ",4.48834442289212,"V","I","ewan.wav","ewan_21",61.7525,60.9271,"i","ewan","HEEDI",4.36797913180308,"V","I","ewan.wav","ewan_6",18.1025,17.36061,"ɑ","ewan","HADI","B","B",1,-0.12036529108904,0.973182697282513,-0.0271834474308691
"118","X_USOZJQCKNP","English","0:29.1",1,0,0,0,0,0,0,1,0,0,0,0,0,1,0,0,1,1,0,0,0,1,0,0,55,"English",0,1,0,0,0,0,0,1,1,0,1,0,0,0,0,0,1,0,0,0,0,0,0,1,0,1,0,1,0,1,0,1,"English","one_play_two_responses","stimulus15_B","orderSI=147","orderAI=139","0:4.8","139;",0,1,NA,"B","ewan_29","ewan.wav",85.39155,86.1325,"HUHDI","ewan","V","I","ʌ",4.24230263074858,"V","I","amelia_vowels.wav","amelia_vowels_6",15.5725,14.8025,"ɑ","amelia","HADI",4.10540299709067,"V","I","amelia_vowels.wav","amelia_vowels_29",77.88257,77.21549,"ʌ","amelia","HUHDI","B","B",1,-0.13689963365791,0.967729875595001,-0.0328022847858061
"119","X_USOZJQCKNP","English","0:29.1",1,0,0,0,0,0,0,1,0,0,0,0,0,1,0,0,1,1,0,0,0,1,0,0,55,"English",0,1,0,0,0,0,0,1,1,0,1,0,0,0,0,0,1,0,0,0,0,0,0,1,0,1,0,1,0,1,0,1,"English","one_play_two_responses","stimulus99_B","orderSI=127","orderAI=140","0:3.6","140;",0,1,NA,"B","amelia_consonants_55","amelia_consonants.wav",145.1325,145.8925,"EETHEE","amelia","C","I","θ",3.97055851290071,"C","I","ewan.wav","ewan_70",208.7325,208.1525,"k","ewan","EEKEE",4.74394228667982,"C","I","ewan.wav","ewan_103",295.6425,295.1025,"θ","ewan","EETHEE","B","B",1,0.77338377377911,1.19477959366833,0.177961727927327
"120","X_USOZJQCKNP","English","0:29.1",1,0,0,0,0,0,0,1,0,0,0,0,0,1,0,0,1,1,0,0,0,1,0,0,55,"English",0,1,0,0,0,0,0,1,1,0,1,0,0,0,0,0,1,0,0,0,0,0,0,1,0,1,0,1,0,1,0,1,"English","one_play_two_responses","stimulus103_B","orderSI=123","orderAI=141","0:3.8","141;",0,1,NA,"B","ewan_58","ewan.wav",174.5225,175.0425,"ATAH","ewan","C","A","t",5.35022924521628,"C","A","amelia_consonants.wav","amelia_consonants_20",53.6525,53.0271,"k","amelia","AKAH",4.89318788906241,"C","A","amelia_consonants.wav","amelia_consonants_10",26.41988,25.79256,"t","amelia","ATAH","B","B",1,-0.45704135615387,0.914575369539068,-0.0892953984301598
"121","X_USOZJQCKNP","English","0:29.1",1,0,0,0,0,0,0,1,0,0,0,0,0,1,0,0,1,1,0,0,0,1,0,0,55,"English",0,1,0,0,0,0,0,1,1,0,1,0,0,0,0,0,1,0,0,0,0,0,0,1,0,1,0,1,0,1,0,1,"English","one_play_two_responses","stimulus97_A","orderSI=129","orderAI=142","0:3.5","142;",1,0,NA,"A","ewan_68","ewan.wav",201.2425,201.7625,"AKAH","ewan","C","A","k",5.26013538175478,"C","A","amelia_consonants.wav","amelia_consonants_50",132.8825,132.2225,"θ","amelia","ATHAH",4.72520129120029,"C","A","amelia_consonants.wav","amelia_consonants_20",53.6525,53.0271,"k","amelia","AKAH","A","A",1,-0.53493409055449,0.898304121142974,-0.10724660304407
"122","X_USOZJQCKNP","English","0:29.1",1,0,0,0,0,0,0,1,0,0,0,0,0,1,0,0,1,1,0,0,0,1,0,0,55,"English",0,1,0,0,0,0,0,1,1,0,1,0,0,0,0,0,1,0,0,0,0,0,0,1,0,1,0,1,0,1,0,1,"English","one_play_two_responses","stimulus61_A","orderSI=133","orderAI=143","0:3.7","143;",1,0,NA,"A","ewan_78","ewan.wav",230.5525,231.0925,"EEFEE","ewan","C","I","f",5.05021539221836,"C","I","amelia_consonants.wav","amelia_consonants_23",62.1525,61.4825,"k","amelia","EEKEE",4.30193895276461,"C","I","amelia_consonants.wav","amelia_consonants_30",81.0525,80.3525,"f","amelia","EEFEE","A","A",1,-0.74827643945375,0.851832767250535,-0.160365053988561
"123","X_USOZJQCKNP","English","0:29.1",1,0,0,0,0,0,0,1,0,0,0,0,0,1,0,0,1,1,0,0,0,1,0,0,55,"English",0,1,0,0,0,0,0,1,1,0,1,0,0,0,0,0,1,0,0,0,0,0,0,1,0,1,0,1,0,1,0,1,"English","one_play_two_responses","stimulus14_B","orderSI=148","orderAI=145","0:4.6","145;",0,1,NA,"B","amelia_vowels_6","amelia_vowels.wav",14.8025,15.5725,"HADI","amelia","V","I","ɑ",4.24230263074858,"V","I","ewan.wav","ewan_29",86.1325,85.39155,"ʌ","ewan","HUHDI",4.36797913180308,"V","I","ewan.wav","ewan_6",18.1025,17.36061,"ɑ","ewan","HADI","B","B",1,0.1256765010545,1.02962459588422,0.0291942657908872
"124","X_USOZJQCKNP","English","0:29.1",1,0,0,0,0,0,0,1,0,0,0,0,0,1,0,0,1,1,0,0,0,1,0,0,55,"English",0,1,0,0,0,0,0,1,1,0,1,0,0,0,0,0,1,0,0,0,0,0,0,1,0,1,0,1,0,1,0,1,"English","one_play_two_responses","stimulus5_A","orderSI=157","orderAI=146","0:4.5","146;",1,0,NA,"A","ewan_2","ewan.wav",6.19383,7.0825,"HADAH","ewan","V","A","ɑ",6.0932408431895,"V","A","amelia_vowels.wav","amelia_vowels_17",45.0725,44.25247,"i","amelia","HEEDAH",3.94548714771845,"V","A","amelia_vowels.wav","amelia_vowels_2",5.3325,4.61383,"ɑ","amelia","HADAH","A","A",1,-2.14775369547105,0.647518660308393,-0.434607666814602
"125","X_USOZJQCKNP","English","0:29.1",1,0,0,0,0,0,0,1,0,0,0,0,0,1,0,0,1,1,0,0,0,1,0,0,55,"English",0,1,0,0,0,0,0,1,1,0,1,0,0,0,0,0,1,0,0,0,0,0,0,1,0,1,0,1,0,1,0,1,"English","one_play_two_responses","stimulus58_B","orderSI=136","orderAI=147","0:4.1","147;",0,1,NA,"B","ewan_38","ewan.wav",111.6225,112.2625,"HOODI","ewan","V","I","ʊ",4.64696923706128,"V","I","amelia_vowels.wav","amelia_vowels_45",117.88562,117.13683,"u","amelia","WHODI",4.21003952924314,"V","I","amelia_vowels.wav","amelia_vowels_38",100.07357,99.36865,"ʊ","amelia","HOODI","B","B",1,-0.43692970781814,0.905975338865283,-0.0987431931051162
"126","X_USOZJQCKNP","English","0:29.1",1,0,0,0,0,0,0,1,0,0,0,0,0,1,0,0,1,1,0,0,0,1,0,0,55,"English",0,1,0,0,0,0,0,1,1,0,1,0,0,0,0,0,1,0,0,0,0,0,0,1,0,1,0,1,0,1,0,1,"English","one_play_two_responses","stimulus110_B","orderSI=116","orderAI=148","0:3.9","148;",0,1,NA,"B","amelia_consonants_6","amelia_consonants.wav",15.68234,16.26261,"EEPEE","amelia","C","I","p",5.96418630034353,"C","I","ewan.wav","ewan_87",255.0425,254.4625,"s","ewan","EESSEE",3.78397268730247,"C","I","ewan.wav","ewan_54",164.3725,163.7625,"p","ewan","EEPEE","B","B",1,-2.18021361304106,0.634449109526394,-0.4549982006765
"127","X_USOZJQCKNP","English","0:29.1",1,0,0,0,0,0,0,1,0,0,0,0,0,1,0,0,1,1,0,0,0,1,0,0,55,"English",0,1,0,0,0,0,0,1,1,0,1,0,0,0,0,0,1,0,0,0,0,0,0,1,0,1,0,1,0,1,0,1,"English","one_play_two_responses","stimulus56_A","orderSI=138","orderAI=149","0:3.9","149;",1,0,NA,"A","amelia_vowels_45","amelia_vowels.wav",117.13683,117.88562,"WHODI","amelia","V","I","u",4.64696923706128,"V","I","ewan.wav","ewan_38",112.2625,111.6225,"ʊ","ewan","HOODI",5.62157808498138,"V","I","ewan.wav","ewan_45",133.1225,132.37364,"u","ewan","WHODI","A","A",1,0.974608847920099,1.20972999781174,0.190397192404357
"128","X_USOZJQCKNP","English","0:29.1",1,0,0,0,0,0,0,1,0,0,0,0,0,1,0,0,1,1,0,0,0,1,0,0,55,"English",0,1,0,0,0,0,0,1,1,0,1,0,0,0,0,0,1,0,0,0,0,0,0,1,0,1,0,1,0,1,0,1,"English","one_play_two_responses","stimulus51_B","orderSI=143","orderAI=150","0:3.9","150;",0,1,NA,"B","ewan_29","ewan.wav",85.39155,86.1325,"HUHDI","ewan","V","I","ʌ",4.81476007859134,"V","I","amelia_vowels.wav","amelia_vowels_38",100.07357,99.36865,"ʊ","amelia","HOODI",4.10540299709067,"V","I","amelia_vowels.wav","amelia_vowels_29",77.88257,77.21549,"ʌ","amelia","HUHDI","B","B",1,-0.70935708150067,0.852670315878292,-0.159382305757178
"129","X_USOZJQCKNP","English","0:29.1",1,0,0,0,0,0,0,1,0,0,0,0,0,1,0,0,1,1,0,0,0,1,0,0,55,"English",0,1,0,0,0,0,0,1,1,0,1,0,0,0,0,0,1,0,0,0,0,0,0,1,0,1,0,1,0,1,0,1,"English","one_play_two_responses","stimulus16_A","orderSI=146","orderAI=151","0:4.6","151;",1,0,NA,"A","amelia_vowels_25","amelia_vowels.wav",66.85124,67.6025,"HUHDAH","amelia","V","A","ʌ",4.07069799926636,"V","A","ewan.wav","ewan_2",7.0825,6.19383,"ɑ","ewan","HADAH",4.21712873839122,"V","A","ewan.wav","ewan_25",73.8125,73.0025,"ʌ","ewan","HUHDAH","A","A",1,0.14643073912486,1.03597189945097,0.0353400193873479
"130","X_USOZJQCKNP","English","0:29.1",1,0,0,0,0,0,0,1,0,0,0,0,0,1,0,0,1,1,0,0,0,1,0,0,55,"English",0,1,0,0,0,0,0,1,1,0,1,0,0,0,0,0,1,0,0,0,0,0,0,1,0,1,0,1,0,1,0,1,"English","one_play_two_responses","stimulus11_B","orderSI=151","orderAI=152","0:5.1","152;",0,1,NA,"B","amelia_vowels_33","amelia_vowels.wav",87.27244,88.0325,"HOODAH","amelia","V","A","ʊ",5.56413495251381,"V","A","ewan.wav","ewan_2",7.0825,6.19383,"ɑ","ewan","HADAH",4.5234798111029,"V","A","ewan.wav","ewan_33",98.1925,97.48359,"ʊ","ewan","HOODAH","B","B",1,-1.04065514141091,0.812970901983469,-0.207059960993079
"131","X_USOZJQCKNP","English","0:29.1",1,0,0,0,0,0,0,1,0,0,0,0,0,1,0,0,1,1,0,0,0,1,0,0,55,"English",0,1,0,0,0,0,0,1,1,0,1,0,0,0,0,0,1,0,0,0,0,0,0,1,0,1,0,1,0,1,0,1,"English","one_play_two_responses","stimulus9_A","orderSI=153","orderAI=153","0:4.1","153;",1,0,NA,"A","amelia_vowels_6","amelia_vowels.wav",14.8025,15.5725,"HADI","amelia","V","I","ɑ",4.38286355428538,"V","I","ewan.wav","ewan_37",109.8025,109.0925,"ʊ","ewan","HOODI",4.36797913180308,"V","I","ewan.wav","ewan_6",18.1025,17.36061,"ɑ","ewan","HADI","A","A",1,-0.0148844224823002,0.996603950294609,-0.00340182937125681
"132","X_USOZJQCKNP","English","0:29.1",1,0,0,0,0,0,0,1,0,0,0,0,0,1,0,0,1,1,0,0,0,1,0,0,55,"English",0,1,0,0,0,0,0,1,1,0,1,0,0,0,0,0,1,0,0,0,0,0,0,1,0,1,0,1,0,1,0,1,"English","one_play_two_responses","stimulus8_A","orderSI=154","orderAI=154","0:5.0","154;",0,1,NA,"A","ewan_21","ewan.wav",60.9271,61.7525,"HEEDI","ewan","V","I","i",4.48834442289212,"V","I","amelia_vowels.wav","amelia_vowels_6",15.5725,14.8025,"ɑ","amelia","HADI",4.02497417048881,"V","I","amelia_vowels.wav","amelia_vowels_21",56.1625,55.37294,"i","amelia","HEEDI","B","A",0,-0.46337025240331,0.896761431667329,-0.108965414764376
"133","X_USOZJQCKNP","English","0:29.1",1,0,0,0,0,0,0,1,0,0,0,0,0,1,0,0,1,1,0,0,0,1,0,0,55,"English",0,1,0,0,0,0,0,1,1,0,1,0,0,0,0,0,1,0,0,0,0,0,0,1,0,1,0,1,0,1,0,1,"English","one_play_two_responses","stimulus55_B","orderSI=139","orderAI=155","0:4.4","155;",0,1,NA,"B","ewan_45","ewan.wav",132.37364,133.1225,"WHODI","ewan","V","I","u",5.40428626676573,"V","I","amelia_vowels.wav","amelia_vowels_38",100.07357,99.36865,"ʊ","amelia","HOODI",5.62157808498138,"V","I","amelia_vowels.wav","amelia_vowels_45",117.88562,117.13683,"u","amelia","WHODI","B","B",1,0.217291818215649,1.04020731091762,0.0394200307090017
"134","X_USOZJQCKNP","English","0:29.1",1,0,0,0,0,0,0,1,0,0,0,0,0,1,0,0,1,1,0,0,0,1,0,0,55,"English",0,1,0,0,0,0,0,1,1,0,1,0,0,0,0,0,1,0,0,0,0,0,0,1,0,1,0,1,0,1,0,1,"English","one_play_two_responses","stimulus12_A","orderSI=150","orderAI=156","0:4.4","156;",1,0,NA,"A","ewan_37","ewan.wav",109.0925,109.8025,"HOODI","ewan","V","I","ʊ",4.38286355428538,"V","I","amelia_vowels.wav","amelia_vowels_6",15.5725,14.8025,"ɑ","amelia","HADI",4.09929051635799,"V","I","amelia_vowels.wav","amelia_vowels_37",97.7525,97.03204,"ʊ","amelia","HOODI","A","A",1,-0.28357303792739,0.935299597075039,-0.0668883763392877
"135","X_USOZJQCKNP","English","0:29.1",1,0,0,0,0,0,0,1,0,0,0,0,0,1,0,0,1,1,0,0,0,1,0,0,55,"English",0,1,0,0,0,0,0,1,1,0,1,0,0,0,0,0,1,0,0,0,0,0,0,1,0,1,0,1,0,1,0,1,"English","one_play_two_responses","stimulus52_A","orderSI=142","orderAI=157","0:4.6","157;",1,0,NA,"A","amelia_vowels_25","amelia_vowels.wav",66.85124,67.6025,"HUHDAH","amelia","V","A","ʌ",4.13262924902412,"V","A","ewan.wav","ewan_34",100.7325,99.9925,"ʊ","ewan","HOODAH",4.21712873839122,"V","A","ewan.wav","ewan_25",73.8125,73.0025,"ʌ","ewan","HUHDAH","A","A",1,0.0844994893670998,1.02044690783405,0.0202406762740595
"136","X_USOZJQCKNP","English","0:29.1",1,0,0,0,0,0,0,1,0,0,0,0,0,1,0,0,1,1,0,0,0,1,0,0,55,"English",0,1,0,0,0,0,0,1,1,0,1,0,0,0,0,0,1,0,0,0,0,0,0,1,0,1,0,1,0,1,0,1,"English","one_play_two_responses","stimulus2_B","orderSI=160","orderAI=158","0:4.6","158;",0,1,NA,"B","ewan_2","ewan.wav",6.19383,7.0825,"HADAH","ewan","V","A","ɑ",4.21551382122395,"V","A","amelia_vowels.wav","amelia_vowels_9",23.8525,23.06915,"æ","amelia","HAEDAH",3.94548714771845,"V","A","amelia_vowels.wav","amelia_vowels_2",5.3325,4.61383,"ɑ","amelia","HADAH","B","B",1,-0.2700266735055,0.935944540818253,-0.0661990555225203
"137","X_USOZJQCKNP","English","0:29.1",1,0,0,0,0,0,0,1,0,0,0,0,0,1,0,0,1,1,0,0,0,1,0,0,55,"English",0,1,0,0,0,0,0,1,1,0,1,0,0,0,0,0,1,0,0,0,0,0,0,1,0,1,0,1,0,1,0,1,"English","one_play_two_responses","stimulus63_B","orderSI=131","orderAI=159","0:3.8","159;",0,1,NA,"B","amelia_consonants_23","amelia_consonants.wav",61.4825,62.1525,"EEKEE","amelia","C","I","k",5.04913870247791,"C","I","ewan.wav","ewan_78",231.0925,230.5525,"f","ewan","EEFEE",4.19467962937756,"C","I","ewan.wav","ewan_71",211.2825,210.7425,"k","ewan","EEKEE","B","B",1,-0.85445907310035,0.830771320922316,-0.185400707409518
"138","X_USOZJQCKNP","English","0:29.1",1,0,0,0,0,0,0,1,0,0,0,0,0,1,0,0,1,1,0,0,0,1,0,0,55,"English",0,1,0,0,0,0,0,1,1,0,1,0,0,0,0,0,1,0,0,0,0,0,0,1,0,1,0,1,0,1,0,1,"English","one_play_two_responses","stimulus102_B","orderSI=124","orderAI=160","0:3.3","160;",0,1,NA,"B","amelia_consonants_20","amelia_consonants.wav",53.0271,53.6525,"AKAH","amelia","C","A","k",5.35375069168886,"C","A","ewan.wav","ewan_58",175.0425,174.5225,"t","ewan","ATAH",4.72520129120029,"C","A","ewan.wav","ewan_68",201.7625,201.2425,"k","ewan","AKAH","B","B",1,-0.62854940048857,0.882596438144883,-0.124887217793987
"139","X_USOZJQCKNP","English","0:29.1",1,0,0,0,0,0,0,1,0,0,0,0,0,1,0,0,1,1,0,0,0,1,0,0,55,"English",0,1,0,0,0,0,0,1,1,0,1,0,0,0,0,0,1,0,0,0,0,0,0,1,0,1,0,1,0,1,0,1,"English","one_play_two_responses","stimulus107_B","orderSI=119","orderAI=161","0:4.1","161;",0,1,NA,"B","amelia_consonants_47","amelia_consonants.wav",124.1225,124.8925,"EESHEE","amelia","C","I","ʃ",4.52662781355239,"C","I","ewan.wav","ewan_54",164.3725,163.7625,"p","ewan","EEPEE",4.30019492823291,"C","I","ewan.wav","ewan_95",274.9925,274.4625,"ʃ","ewan","EESHEE","B","B",1,-0.22643288531948,0.949977578310822,-0.0513168964441591
"140","X_USOZJQCKNP","English","0:29.1",1,0,0,0,0,0,0,1,0,0,0,0,0,1,0,0,1,1,0,0,0,1,0,0,55,"English",0,1,0,0,0,0,0,1,1,0,1,0,0,0,0,0,1,0,0,0,0,0,0,1,0,1,0,1,0,1,0,1,"English","one_play_two_responses","stimulus60_A","orderSI=134","orderAI=162","0:4.0","162;",1,0,NA,"A","ewan_41","ewan.wav",121.1525,121.8625,"WHODAH","ewan","V","A","u",4.47514979806611,"V","A","amelia_vowels.wav","amelia_vowels_34",90.0925,89.37938,"ʊ","amelia","HOODAH",4.21836070207404,"V","A","amelia_vowels.wav","amelia_vowels_41",107.96148,107.22875,"u","amelia","WHODAH","A","A",1,-0.25678909599207,0.942618882589575,-0.0590932322408139
"141","X_PAUOGDRHWC","English","0:22.1",1,0,0,0,0,0,0,0,1,0,0,0,0,0,1,0,1,0,1,0,0,0,0,1,86,"English",0,1,0,0,0,0,1,0,1,0,1,0,0,0,0,0,1,0,0,0,0,0,0,1,0,1,0,1,0,1,0,1,"English","one_play_two_responses","stimulus96_A","orderSI=30","orderAI=14","0:5.1","14;",0,1,NA,"A","amelia_consonants_34","amelia_consonants.wav",91.35499,92.1125,"ASSAH","amelia","C","A","s",5.18966781258765,"C","A","ewan.wav","ewan_68",201.7625,201.2425,"k","ewan","AKAH",4.59598069968391,"C","A","ewan.wav","ewan_82",242.2825,241.7525,"s","ewan","ASSAH","B","A",0,-0.59368711290374,0.88560209740906,-0.121487529242434
"142","X_PAUOGDRHWC","English","0:22.1",1,0,0,0,0,0,0,0,1,0,0,0,0,0,1,0,1,0,1,0,0,0,0,1,86,"English",0,1,0,0,0,0,1,0,1,0,1,0,0,0,0,0,1,0,0,0,0,0,0,1,0,1,0,1,0,1,0,1,"English","one_play_two_responses","stimulus82_B","orderSI=44","orderAI=15","0:5.2","15;",1,0,NA,"B","ewan_78","ewan.wav",230.5525,231.0925,"EEFEE","ewan","C","I","f",5.0143894935211,"C","I","amelia_consonants.wav","amelia_consonants_15",39.6784,39.06797,"t","amelia","EETEE",4.30193895276461,"C","I","amelia_consonants.wav","amelia_consonants_30",81.0525,80.3525,"f","amelia","EEFEE","A","B",0,-0.71245054075649,0.857918787186951,-0.153245837602375
"143","X_PAUOGDRHWC","English","0:22.1",1,0,0,0,0,0,0,0,1,0,0,0,0,0,1,0,1,0,1,0,0,0,0,1,86,"English",0,1,0,0,0,0,1,0,1,0,1,0,0,0,0,0,1,0,0,0,0,0,0,1,0,1,0,1,0,1,0,1,"English","one_play_two_responses","stimulus92_A","orderSI=34","orderAI=16","0:4.2","16;",0,1,NA,"A","amelia_consonants_42","amelia_consonants.wav",112.2325,112.9325,"ASHAH","amelia","C","A","ʃ",5.00549753917184,"C","A","ewan.wav","ewan_68",201.7625,201.2425,"k","ewan","AKAH",4.05922305779583,"C","A","ewan.wav","ewan_90",262.4725,261.8925,"ʃ","ewan","ASHAH","B","A",0,-0.94627448137601,0.810952962423677,-0.209545226026346
"144","X_PAUOGDRHWC","English","0:22.1",1,0,0,0,0,0,0,0,1,0,0,0,0,0,1,0,1,0,1,0,0,0,0,1,86,"English",0,1,0,0,0,0,1,0,1,0,1,0,0,0,0,0,1,0,0,0,0,0,0,1,0,1,0,1,0,1,0,1,"English","one_play_two_responses","stimulus42_B","orderSI=52","orderAI=17","0:4.4","17;",1,0,NA,"B","ewan_22","ewan.wav",63.5825,64.2525,"HEEDI","ewan","V","I","i",4.94061938411503,"V","I","amelia_vowels.wav","amelia_vowels_29",77.88257,77.21549,"ʌ","amelia","HUHDI",4.00241650720463,"V","I","amelia_vowels.wav","amelia_vowels_22",58.41293,57.64913,"i","amelia","HEEDI","A","B",0,-0.938202876910401,0.810104198690778,-0.210592399230129
"145","X_PAUOGDRHWC","English","0:22.1",1,0,0,0,0,0,0,0,1,0,0,0,0,0,1,0,1,0,1,0,0,0,0,1,86,"English",0,1,0,0,0,0,1,0,1,0,1,0,0,0,0,0,1,0,0,0,0,0,0,1,0,1,0,1,0,1,0,1,"English","one_play_two_responses","stimulus95_B","orderSI=31","orderAI=18","0:4.3","18;",1,0,NA,"B","ewan_82","ewan.wav",241.7525,242.2825,"ASSAH","ewan","C","A","s",5.9043911884594,"C","A","amelia_consonants.wav","amelia_consonants_20",53.6525,53.0271,"k","amelia","AKAH",4.59598069968391,"C","A","amelia_consonants.wav","amelia_consonants_34",92.1125,91.35499,"s","amelia","ASSAH","A","B",0,-1.30841048877549,0.778400440110933,-0.250514182705912
"146","X_PAUOGDRHWC","English","0:22.1",1,0,0,0,0,0,0,0,1,0,0,0,0,0,1,0,1,0,1,0,0,0,0,1,86,"English",0,1,0,0,0,0,1,0,1,0,1,0,0,0,0,0,1,0,0,0,0,0,0,1,0,1,0,1,0,1,0,1,"English","one_play_two_responses","stimulus83_B","orderSI=43","orderAI=19","0:3.9","19;",1,0,NA,"B","ewan_58","ewan.wav",174.5225,175.0425,"ATAH","ewan","C","A","t",5.34189688415539,"C","A","amelia_consonants.wav","amelia_consonants_28",75.17926,74.47714,"f","amelia","AFAH",4.89318788906241,"C","A","amelia_consonants.wav","amelia_consonants_10",26.41988,25.79256,"t","amelia","ATAH","A","B",0,-0.44870899509298,0.916001936236565,-0.0877368005148644
"147","X_PAUOGDRHWC","English","0:22.1",1,0,0,0,0,0,0,0,1,0,0,0,0,0,1,0,1,0,1,0,0,0,0,1,86,"English",0,1,0,0,0,0,1,0,1,0,1,0,0,0,0,0,1,0,0,0,0,0,0,1,0,1,0,1,0,1,0,1,"English","one_play_two_responses","stimulus131_B","orderSI=27","orderAI=20","0:4.6","20;",1,0,NA,"B","amelia_consonants_10","amelia_consonants.wav",25.79256,26.41988,"ATAH","amelia","C","A","t",5.46029283580614,"C","A","ewan.wav","ewan_92",267.2825,266.7625,"ʃ","ewan","ASHAH",4.88774087355227,"C","A","ewan.wav","ewan_58",175.0425,174.5225,"t","ewan","ATAH","A","B",0,-0.57255196225387,0.89514262705851,-0.110772213561802
"148","X_PAUOGDRHWC","English","0:22.1",1,0,0,0,0,0,0,0,1,0,0,0,0,0,1,0,1,0,1,0,0,0,0,1,86,"English",0,1,0,0,0,0,1,0,1,0,1,0,0,0,0,0,1,0,0,0,0,0,0,1,0,1,0,1,0,1,0,1,"English","one_play_two_responses","stimulus133_A","orderSI=25","orderAI=21","0:3.5","21;",0,1,NA,"A","amelia_consonants_38","amelia_consonants.wav",101.9725,102.63328,"EESSEE","amelia","C","I","s",4.24189271789707,"C","I","ewan.wav","ewan_103",295.6425,295.1025,"θ","ewan","EETHEE",4.12831735726253,"C","I","ewan.wav","ewan_86",252.5325,252.0025,"s","ewan","EESSEE","B","A",0,-0.11357536063454,0.97322531044801,-0.0271396609633512
"149","X_PAUOGDRHWC","English","0:22.1",1,0,0,0,0,0,0,0,1,0,0,0,0,0,1,0,1,0,1,0,0,0,0,1,86,"English",0,1,0,0,0,0,1,0,1,0,1,0,0,0,0,0,1,0,0,0,0,0,0,1,0,1,0,1,0,1,0,1,"English","one_play_two_responses","stimulus136_A","orderSI=22","orderAI=22","0:4.1","22;",1,0,NA,"A","ewan_98","ewan.wav",282.1625,282.7725,"ATHAH","ewan","C","A","θ",4.36459980280171,"C","A","amelia_consonants.wav","amelia_consonants_36",96.8425,96.17157,"s","amelia","ASSAH",4.44049913535651,"C","A","amelia_consonants.wav","amelia_consonants_50",132.8825,132.2225,"θ","amelia","ATHAH","A","A",1,0.0758993325548003,1.01738975759154,0.0172402861173416
"150","X_PAUOGDRHWC","English","0:22.1",1,0,0,0,0,0,0,0,1,0,0,0,0,0,1,0,1,0,1,0,0,0,0,1,86,"English",0,1,0,0,0,0,1,0,1,0,1,0,0,0,0,0,1,0,0,0,0,0,0,1,0,1,0,1,0,1,0,1,"English","one_play_two_responses","stimulus135_B","orderSI=23","orderAI=23","0:3.9","23;",1,0,NA,"B","ewan_103","ewan.wav",295.1025,295.6425,"EETHEE","ewan","C","I","θ",4.24294475352099,"C","I","amelia_consonants.wav","amelia_consonants_38",102.63328,101.9725,"s","amelia","EESSEE",4.74394228667982,"C","I","amelia_consonants.wav","amelia_consonants_55",145.8925,145.1325,"θ","amelia","EETHEE","A","B",0,0.50099753315883,1.11807778848477,0.111610950563592
"151","X_PAUOGDRHWC","English","0:22.1",1,0,0,0,0,0,0,0,1,0,0,0,0,0,1,0,1,0,1,0,0,0,0,1,86,"English",0,1,0,0,0,0,1,0,1,0,1,0,0,0,0,0,1,0,0,0,0,0,0,1,0,1,0,1,0,1,0,1,"English","one_play_two_responses","stimulus46_B","orderSI=48","orderAI=24","0:4.0","24;",1,0,NA,"B","ewan_18","ewan.wav",51.6225,52.3425,"HEEDAH","ewan","V","A","i",4.76018901076256,"V","A","amelia_vowels.wav","amelia_vowels_41",107.96148,107.22875,"u","amelia","WHODAH",4.1694616782718,"V","A","amelia_vowels.wav","amelia_vowels_18",47.1525,46.44523,"i","amelia","HEEDAH","A","B",0,-0.59072733249076,0.875902546904093,-0.132500442060622
"152","X_PAUOGDRHWC","English","0:22.1",1,0,0,0,0,0,0,0,1,0,0,0,0,0,1,0,1,0,1,0,0,0,0,1,86,"English",0,1,0,0,0,0,1,0,1,0,1,0,0,0,0,0,1,0,0,0,0,0,0,1,0,1,0,1,0,1,0,1,"English","one_play_two_responses","stimulus91_B","orderSI=35","orderAI=25","0:3.4","25;",1,0,NA,"B","ewan_90","ewan.wav",261.8925,262.4725,"ASHAH","ewan","C","A","ʃ",6.61298969260204,"C","A","amelia_consonants.wav","amelia_consonants_20",53.6525,53.0271,"k","amelia","AKAH",4.05922305779583,"C","A","amelia_consonants.wav","amelia_consonants_42",112.9325,112.2325,"ʃ","amelia","ASHAH","A","B",0,-2.55376663480621,0.613825704633547,-0.488044259808339
"153","X_PAUOGDRHWC","English","0:22.1",1,0,0,0,0,0,0,0,1,0,0,0,0,0,1,0,1,0,1,0,0,0,0,1,86,"English",0,1,0,0,0,0,1,0,1,0,1,0,0,0,0,0,1,0,0,0,0,0,0,1,0,1,0,1,0,1,0,1,"English","one_play_two_responses","stimulus88_A","orderSI=38","orderAI=26","0:3.6","26;",1,0,NA,"A","ewan_50","ewan.wav",152.8525,153.4425,"APAH","ewan","C","A","p",5.05092946444963,"C","A","amelia_consonants.wav","amelia_consonants_20",53.6525,53.0271,"k","amelia","AKAH",4.43996685606995,"C","A","amelia_consonants.wav","amelia_consonants_2",5.58607,5.00997,"p","amelia","APAH","A","A",1,-0.61096260837968,0.879039568325025,-0.128925367150812
"154","X_PAUOGDRHWC","English","0:22.1",1,0,0,0,0,0,0,0,1,0,0,0,0,0,1,0,1,0,1,0,0,0,0,1,86,"English",0,1,0,0,0,0,1,0,1,0,1,0,0,0,0,0,1,0,0,0,0,0,0,1,0,1,0,1,0,1,0,1,"English","one_play_two_responses","stimulus90_B","orderSI=36","orderAI=27","0:3.2","27;",1,0,NA,"B","amelia_consonants_22","amelia_consonants.wav",58.98421,59.67452,"EEKEE","amelia","C","I","k",6.40665341827113,"C","I","ewan.wav","ewan_95",274.9925,274.4625,"ʃ","ewan","EESHEE",4.26172344904056,"C","I","ewan.wav","ewan_70",208.7325,208.1525,"k","ewan","EEKEE","A","B",0,-2.14492996923057,0.665202746395888,-0.407663402994966
"155","X_PAUOGDRHWC","English","0:22.1",1,0,0,0,0,0,0,0,1,0,0,0,0,0,1,0,1,0,1,0,0,0,0,1,86,"English",0,1,0,0,0,0,1,0,1,0,1,0,0,0,0,0,1,0,0,0,0,0,0,1,0,1,0,1,0,1,0,1,"English","one_play_two_responses","stimulus35_B","orderSI=59","orderAI=28","0:5.2","28;",1,0,NA,"B","amelia_vowels_45","amelia_vowels.wav",117.13683,117.88562,"WHODI","amelia","V","I","u",5.34910203312549,"V","I","ewan.wav","ewan_14",40.9225,40.24068,"æ","ewan","HAEDI",5.62157808498138,"V","I","ewan.wav","ewan_45",133.1225,132.37364,"u","ewan","WHODI","A","B",0,0.27247605185589,1.05093865291193,0.049683719983721
"156","X_PAUOGDRHWC","English","0:22.1",1,0,0,0,0,0,0,0,1,0,0,0,0,0,1,0,1,0,1,0,0,0,0,1,86,"English",0,1,0,0,0,0,1,0,1,0,1,0,0,0,0,0,1,0,0,0,0,0,0,1,0,1,0,1,0,1,0,1,"English","one_play_two_responses","stimulus129_A","orderSI=29","orderAI=29","0:4.8","29;",0,1,NA,"A","amelia_consonants_46","amelia_consonants.wav",121.8625,122.6025,"EESHEE","amelia","C","I","ʃ",3.86297497410455,"C","I","ewan.wav","ewan_63",188.3425,187.7525,"t","ewan","EETEE",3.98598040919897,"C","I","ewan.wav","ewan_94",272.5425,271.9525,"ʃ","ewan","EESHEE","B","A",0,0.12300543509442,1.03184215168853,0.0313457015705599
"157","X_PAUOGDRHWC","English","0:22.1",1,0,0,0,0,0,0,0,1,0,0,0,0,0,1,0,1,0,1,0,0,0,0,1,86,"English",0,1,0,0,0,0,1,0,1,0,1,0,0,0,0,0,1,0,0,0,0,0,0,1,0,1,0,1,0,1,0,1,"English","one_play_two_responses","stimulus143_B","orderSI=15","orderAI=30","0:5.0","30;",1,0,NA,"B","amelia_consonants_10","amelia_consonants.wav",25.79256,26.41988,"ATAH","amelia","C","A","t",4.61723047292289,"C","A","ewan.wav","ewan_100",287.7725,287.2125,"θ","ewan","ATHAH",4.88774087355227,"C","A","ewan.wav","ewan_58",175.0425,174.5225,"t","ewan","ATAH","A","B",0,0.270510400629379,1.05858715570205,0.056935147080827
"158","X_PAUOGDRHWC","English","0:22.1",1,0,0,0,0,0,0,0,1,0,0,0,0,0,1,0,1,0,1,0,0,0,0,1,86,"English",0,1,0,0,0,0,1,0,1,0,1,0,0,0,0,0,1,0,0,0,0,0,0,1,0,1,0,1,0,1,0,1,"English","one_play_two_responses","stimulus86_B","orderSI=40","orderAI=31","0:3.8","31;",1,0,NA,"B","amelia_consonants_20","amelia_consonants.wav",53.0271,53.6525,"AKAH","amelia","C","A","k",5.05092946444963,"C","A","ewan.wav","ewan_50",153.4425,152.8525,"p","ewan","APAH",4.72520129120029,"C","A","ewan.wav","ewan_68",201.7625,201.2425,"k","ewan","AKAH","A","B",0,-0.32572817324934,0.935511240942496,-0.0666621173674465
"159","X_PAUOGDRHWC","English","0:22.1",1,0,0,0,0,0,0,0,1,0,0,0,0,0,1,0,1,0,1,0,0,0,0,1,86,"English",0,1,0,0,0,0,1,0,1,0,1,0,0,0,0,0,1,0,0,0,0,0,0,1,0,1,0,1,0,1,0,1,"English","one_play_two_responses","stimulus140_A","orderSI=18","orderAI=32","0:3.6","32;",0,1,NA,"A","amelia_consonants_10","amelia_consonants.wav",25.79256,26.41988,"ATAH","amelia","C","A","t",4.93025958241383,"C","A","ewan.wav","ewan_84",247.3725,246.8625,"s","ewan","ASSAH",4.88774087355227,"C","A","ewan.wav","ewan_58",175.0425,174.5225,"t","ewan","ATAH","B","A",0,-0.0425187088615608,0.991375969530443,-0.00866143261373677
"160","X_PAUOGDRHWC","English","0:22.1",1,0,0,0,0,0,0,0,1,0,0,0,0,0,1,0,1,0,1,0,0,0,0,1,86,"English",0,1,0,0,0,0,1,0,1,0,1,0,0,0,0,0,1,0,0,0,0,0,0,1,0,1,0,1,0,1,0,1,"English","one_play_two_responses","stimulus45_A","orderSI=49","orderAI=33","0:3.8","33;",0,1,NA,"A","amelia_vowels_18","amelia_vowels.wav",46.44523,47.1525,"HEEDAH","amelia","V","A","i",5.26378385304332,"V","A","ewan.wav","ewan_41",121.8625,121.1525,"u","ewan","WHODAH",4.1694616782718,"V","A","ewan.wav","ewan_18",52.3425,51.6225,"i","ewan","HEEDAH","B","A",0,-1.09432217477152,0.792103512354744,-0.233063198290269
"161","X_PAUOGDRHWC","English","0:22.1",1,0,0,0,0,0,0,0,1,0,0,0,0,0,1,0,1,0,1,0,0,0,0,1,86,"English",0,1,0,0,0,0,1,0,1,0,1,0,0,0,0,0,1,0,0,0,0,0,0,1,0,1,0,1,0,1,0,1,"English","one_play_two_responses","stimulus130_B","orderSI=28","orderAI=34","0:3.5","34;",1,0,NA,"B","ewan_92","ewan.wav",266.7625,267.2825,"ASHAH","ewan","C","A","ʃ",5.46029283580614,"C","A","amelia_consonants.wav","amelia_consonants_10",26.41988,25.79256,"t","amelia","ATAH",4.84368953516515,"C","A","amelia_consonants.wav","amelia_consonants_44",117.1625,116.4925,"ʃ","amelia","ASHAH","A","B",0,-0.61660330064099,0.887075049052757,-0.11982569027122
"162","X_PAUOGDRHWC","English","0:22.1",1,0,0,0,0,0,0,0,1,0,0,0,0,0,1,0,1,0,1,0,0,0,0,1,86,"English",0,1,0,0,0,0,1,0,1,0,1,0,0,0,0,0,1,0,0,0,0,0,0,1,0,1,0,1,0,1,0,1,"English","one_play_two_responses","stimulus134_B","orderSI=24","orderAI=35","0:3.5","35;",1,0,NA,"B","amelia_consonants_36","amelia_consonants.wav",96.17157,96.8425,"ASSAH","amelia","C","A","s",4.36459980280171,"C","A","ewan.wav","ewan_98",282.7725,282.1625,"θ","ewan","ATHAH",4.34812189386681,"C","A","ewan.wav","ewan_84",247.3725,246.8625,"s","ewan","ASSAH","A","B",0,-0.0164779089348999,0.996224646089128,-0.0037824985474718
"163","X_PAUOGDRHWC","English","0:22.1",1,0,0,0,0,0,0,0,1,0,0,0,0,0,1,0,1,0,1,0,0,0,0,1,86,"English",0,1,0,0,0,0,1,0,1,0,1,0,0,0,0,0,1,0,0,0,0,0,0,1,0,1,0,1,0,1,0,1,"English","one_play_two_responses","stimulus36_A","orderSI=58","orderAI=36","0:4.1","36;",1,0,NA,"A","amelia_vowels_41","amelia_vowels.wav",107.22875,107.96148,"WHODAH","amelia","V","A","u",5.20187483772057,"V","A","ewan.wav","ewan_10",29.4125,28.6807,"æ","ewan","HAEDAH",4.27155579521872,"V","A","ewan.wav","ewan_41",121.8625,121.1525,"u","ewan","WHODAH","A","A",1,-0.93031904250185,0.821156972913729,-0.197040990590306
"164","X_PAUOGDRHWC","English","0:22.1",1,0,0,0,0,0,0,0,1,0,0,0,0,0,1,0,1,0,1,0,0,0,0,1,86,"English",0,1,0,0,0,0,1,0,1,0,1,0,0,0,0,0,1,0,0,0,0,0,0,1,0,1,0,1,0,1,0,1,"English","one_play_two_responses","stimulus38_B","orderSI=56","orderAI=37","0:3.8","37;",0,1,NA,"B","ewan_22","ewan.wav",63.5825,64.2525,"HEEDI","ewan","V","I","i",4.21396716064081,"V","I","amelia_vowels.wav","amelia_vowels_37",97.7525,97.03204,"ʊ","amelia","HOODI",4.00241650720463,"V","I","amelia_vowels.wav","amelia_vowels_22",58.41293,57.64913,"i","amelia","HEEDI","B","B",1,-0.211550653436181,0.949797745124333,-0.051506216923068
