"","subject_id","subject_language.x","survey_time","chrome","firefox","IE","safari","opera","other","don.t.know","headphones","speakers","earbuds","very.bad","bad","normal","good","very.good","distractions_yes","distractions_no","wireless","wired","very_slowly","slowly","tolerably_so","pretty_fast","no_loading_time","satisfaction","subject_language.y","X18.29yrs","X30.39yrs","X40.49yrs","X50.59yrs","X60.69yrs","more_than_69yrs","handedness_L","handedness_R","lang_other_target_no","lang_other_target_yes","other_lang_na","other_lang_native","other_lang_bcpdexp","other_lang_assezdexp","other_lang_unpeudexp","other_lang_trespeudexp","other_lang_comp_na","other_lang_comp_native","other_lang_presque_native","other_lang_avancee","other_lang_intermediare","other_lang_debutant","hear_vis_problems_yes","hear_vis_problems_no","troubles_de_lang_yes","troubles_de_lang_no","ling_course_yes","ling_course_no","phonet_course_yes","phonet_course_no","phonog_course_yes","phonog_course_no","subject_language","trial_type","tripletid","S.order","A_Order","RT","order","first_sound","second_sound","user_resp","corr_ans","user_corr"
"1","X_PAUOGDRHWC","English","0:22.1",1,0,0,0,0,0,0,0,1,0,0,0,0,0,1,0,1,0,1,0,0,0,0,1,86,"English",0,1,0,0,0,0,1,0,1,0,1,0,0,0,0,0,1,0,0,0,0,0,0,1,0,1,0,1,0,1,0,1,"English","prot_catch_trial","stimulus49_A","orderSI=8","orderAI=8","0:10.8","8;",1,0,"A","A",1
"2","X_PAUOGDRHWC","English","0:22.1",1,0,0,0,0,0,0,0,1,0,0,0,0,0,1,0,1,0,1,0,0,0,0,1,86,"English",0,1,0,0,0,0,1,0,1,0,1,0,0,0,0,0,1,0,0,0,0,0,0,1,0,1,0,1,0,1,0,1,"English","prot_catch_trial","stimulus50_B","orderSI=9","orderAI=9","0:5.5","9;",1,0,"A","B",0
"3","X_PAUOGDRHWC","English","0:22.1",1,0,0,0,0,0,0,0,1,0,0,0,0,0,1,0,1,0,1,0,0,0,0,1,86,"English",0,1,0,0,0,0,1,0,1,0,1,0,0,0,0,0,1,0,0,0,0,0,0,1,0,1,0,1,0,1,0,1,"English","prot_catch_trial","stimulus100_A","orderSI=10","orderAI=10","0:4.2","10;",0,1,"B","A",0
"4","X_PAUOGDRHWC","English","0:22.1",1,0,0,0,0,0,0,0,1,0,0,0,0,0,1,0,1,0,1,0,0,0,0,1,86,"English",0,1,0,0,0,0,1,0,1,0,1,0,0,0,0,0,1,0,0,0,0,0,0,1,0,1,0,1,0,1,0,1,"English","prot_catch_trial","stimulus104_A","orderSI=11","orderAI=11","0:3.6","11;",0,1,"B","A",0
"5","X_PAUOGDRHWC","English","0:22.1",1,0,0,0,0,0,0,0,1,0,0,0,0,0,1,0,1,0,1,0,0,0,0,1,86,"English",0,1,0,0,0,0,1,0,1,0,1,0,0,0,0,0,1,0,0,0,0,0,0,1,0,1,0,1,0,1,0,1,"English","one_play_two_responses","stimulus96_A","orderSI=30","orderAI=14","0:5.1","14;",0,1,"B","A",0
"6","X_PAUOGDRHWC","English","0:22.1",1,0,0,0,0,0,0,0,1,0,0,0,0,0,1,0,1,0,1,0,0,0,0,1,86,"English",0,1,0,0,0,0,1,0,1,0,1,0,0,0,0,0,1,0,0,0,0,0,0,1,0,1,0,1,0,1,0,1,"English","one_play_two_responses","stimulus82_B","orderSI=44","orderAI=15","0:5.2","15;",1,0,"A","B",0
"7","X_PAUOGDRHWC","English","0:22.1",1,0,0,0,0,0,0,0,1,0,0,0,0,0,1,0,1,0,1,0,0,0,0,1,86,"English",0,1,0,0,0,0,1,0,1,0,1,0,0,0,0,0,1,0,0,0,0,0,0,1,0,1,0,1,0,1,0,1,"English","one_play_two_responses","stimulus92_A","orderSI=34","orderAI=16","0:4.2","16;",0,1,"B","A",0
"8","X_PAUOGDRHWC","English","0:22.1",1,0,0,0,0,0,0,0,1,0,0,0,0,0,1,0,1,0,1,0,0,0,0,1,86,"English",0,1,0,0,0,0,1,0,1,0,1,0,0,0,0,0,1,0,0,0,0,0,0,1,0,1,0,1,0,1,0,1,"English","one_play_two_responses","stimulus42_B","orderSI=52","orderAI=17","0:4.4","17;",1,0,"A","B",0
"9","X_PAUOGDRHWC","English","0:22.1",1,0,0,0,0,0,0,0,1,0,0,0,0,0,1,0,1,0,1,0,0,0,0,1,86,"English",0,1,0,0,0,0,1,0,1,0,1,0,0,0,0,0,1,0,0,0,0,0,0,1,0,1,0,1,0,1,0,1,"English","one_play_two_responses","stimulus95_B","orderSI=31","orderAI=18","0:4.3","18;",1,0,"A","B",0
"10","X_PAUOGDRHWC","English","0:22.1",1,0,0,0,0,0,0,0,1,0,0,0,0,0,1,0,1,0,1,0,0,0,0,1,86,"English",0,1,0,0,0,0,1,0,1,0,1,0,0,0,0,0,1,0,0,0,0,0,0,1,0,1,0,1,0,1,0,1,"English","one_play_two_responses","stimulus83_B","orderSI=43","orderAI=19","0:3.9","19;",1,0,"A","B",0
"11","X_PAUOGDRHWC","English","0:22.1",1,0,0,0,0,0,0,0,1,0,0,0,0,0,1,0,1,0,1,0,0,0,0,1,86,"English",0,1,0,0,0,0,1,0,1,0,1,0,0,0,0,0,1,0,0,0,0,0,0,1,0,1,0,1,0,1,0,1,"English","one_play_two_responses","stimulus131_B","orderSI=27","orderAI=20","0:4.6","20;",1,0,"A","B",0
"12","X_PAUOGDRHWC","English","0:22.1",1,0,0,0,0,0,0,0,1,0,0,0,0,0,1,0,1,0,1,0,0,0,0,1,86,"English",0,1,0,0,0,0,1,0,1,0,1,0,0,0,0,0,1,0,0,0,0,0,0,1,0,1,0,1,0,1,0,1,"English","one_play_two_responses","stimulus133_A","orderSI=25","orderAI=21","0:3.5","21;",0,1,"B","A",0
"13","X_PAUOGDRHWC","English","0:22.1",1,0,0,0,0,0,0,0,1,0,0,0,0,0,1,0,1,0,1,0,0,0,0,1,86,"English",0,1,0,0,0,0,1,0,1,0,1,0,0,0,0,0,1,0,0,0,0,0,0,1,0,1,0,1,0,1,0,1,"English","one_play_two_responses","stimulus136_A","orderSI=22","orderAI=22","0:4.1","22;",1,0,"A","A",1
"14","X_PAUOGDRHWC","English","0:22.1",1,0,0,0,0,0,0,0,1,0,0,0,0,0,1,0,1,0,1,0,0,0,0,1,86,"English",0,1,0,0,0,0,1,0,1,0,1,0,0,0,0,0,1,0,0,0,0,0,0,1,0,1,0,1,0,1,0,1,"English","one_play_two_responses","stimulus135_B","orderSI=23","orderAI=23","0:3.9","23;",1,0,"A","B",0
"15","X_PAUOGDRHWC","English","0:22.1",1,0,0,0,0,0,0,0,1,0,0,0,0,0,1,0,1,0,1,0,0,0,0,1,86,"English",0,1,0,0,0,0,1,0,1,0,1,0,0,0,0,0,1,0,0,0,0,0,0,1,0,1,0,1,0,1,0,1,"English","one_play_two_responses","stimulus46_B","orderSI=48","orderAI=24","0:4.0","24;",1,0,"A","B",0
"16","X_PAUOGDRHWC","English","0:22.1",1,0,0,0,0,0,0,0,1,0,0,0,0,0,1,0,1,0,1,0,0,0,0,1,86,"English",0,1,0,0,0,0,1,0,1,0,1,0,0,0,0,0,1,0,0,0,0,0,0,1,0,1,0,1,0,1,0,1,"English","one_play_two_responses","stimulus91_B","orderSI=35","orderAI=25","0:3.4","25;",1,0,"A","B",0
"17","X_PAUOGDRHWC","English","0:22.1",1,0,0,0,0,0,0,0,1,0,0,0,0,0,1,0,1,0,1,0,0,0,0,1,86,"English",0,1,0,0,0,0,1,0,1,0,1,0,0,0,0,0,1,0,0,0,0,0,0,1,0,1,0,1,0,1,0,1,"English","one_play_two_responses","stimulus88_A","orderSI=38","orderAI=26","0:3.6","26;",1,0,"A","A",1
"18","X_PAUOGDRHWC","English","0:22.1",1,0,0,0,0,0,0,0,1,0,0,0,0,0,1,0,1,0,1,0,0,0,0,1,86,"English",0,1,0,0,0,0,1,0,1,0,1,0,0,0,0,0,1,0,0,0,0,0,0,1,0,1,0,1,0,1,0,1,"English","one_play_two_responses","stimulus90_B","orderSI=36","orderAI=27","0:3.2","27;",1,0,"A","B",0
"19","X_PAUOGDRHWC","English","0:22.1",1,0,0,0,0,0,0,0,1,0,0,0,0,0,1,0,1,0,1,0,0,0,0,1,86,"English",0,1,0,0,0,0,1,0,1,0,1,0,0,0,0,0,1,0,0,0,0,0,0,1,0,1,0,1,0,1,0,1,"English","one_play_two_responses","stimulus35_B","orderSI=59","orderAI=28","0:5.2","28;",1,0,"A","B",0
"20","X_PAUOGDRHWC","English","0:22.1",1,0,0,0,0,0,0,0,1,0,0,0,0,0,1,0,1,0,1,0,0,0,0,1,86,"English",0,1,0,0,0,0,1,0,1,0,1,0,0,0,0,0,1,0,0,0,0,0,0,1,0,1,0,1,0,1,0,1,"English","one_play_two_responses","stimulus129_A","orderSI=29","orderAI=29","0:4.8","29;",0,1,"B","A",0
"21","X_PAUOGDRHWC","English","0:22.1",1,0,0,0,0,0,0,0,1,0,0,0,0,0,1,0,1,0,1,0,0,0,0,1,86,"English",0,1,0,0,0,0,1,0,1,0,1,0,0,0,0,0,1,0,0,0,0,0,0,1,0,1,0,1,0,1,0,1,"English","one_play_two_responses","stimulus143_B","orderSI=15","orderAI=30","0:5.0","30;",1,0,"A","B",0
"22","X_PAUOGDRHWC","English","0:22.1",1,0,0,0,0,0,0,0,1,0,0,0,0,0,1,0,1,0,1,0,0,0,0,1,86,"English",0,1,0,0,0,0,1,0,1,0,1,0,0,0,0,0,1,0,0,0,0,0,0,1,0,1,0,1,0,1,0,1,"English","one_play_two_responses","stimulus86_B","orderSI=40","orderAI=31","0:3.8","31;",1,0,"A","B",0
"23","X_PAUOGDRHWC","English","0:22.1",1,0,0,0,0,0,0,0,1,0,0,0,0,0,1,0,1,0,1,0,0,0,0,1,86,"English",0,1,0,0,0,0,1,0,1,0,1,0,0,0,0,0,1,0,0,0,0,0,0,1,0,1,0,1,0,1,0,1,"English","one_play_two_responses","stimulus140_A","orderSI=18","orderAI=32","0:3.6","32;",0,1,"B","A",0
"24","X_PAUOGDRHWC","English","0:22.1",1,0,0,0,0,0,0,0,1,0,0,0,0,0,1,0,1,0,1,0,0,0,0,1,86,"English",0,1,0,0,0,0,1,0,1,0,1,0,0,0,0,0,1,0,0,0,0,0,0,1,0,1,0,1,0,1,0,1,"English","one_play_two_responses","stimulus45_A","orderSI=49","orderAI=33","0:3.8","33;",0,1,"B","A",0
"25","X_PAUOGDRHWC","English","0:22.1",1,0,0,0,0,0,0,0,1,0,0,0,0,0,1,0,1,0,1,0,0,0,0,1,86,"English",0,1,0,0,0,0,1,0,1,0,1,0,0,0,0,0,1,0,0,0,0,0,0,1,0,1,0,1,0,1,0,1,"English","one_play_two_responses","stimulus130_B","orderSI=28","orderAI=34","0:3.5","34;",1,0,"A","B",0
"26","X_PAUOGDRHWC","English","0:22.1",1,0,0,0,0,0,0,0,1,0,0,0,0,0,1,0,1,0,1,0,0,0,0,1,86,"English",0,1,0,0,0,0,1,0,1,0,1,0,0,0,0,0,1,0,0,0,0,0,0,1,0,1,0,1,0,1,0,1,"English","one_play_two_responses","stimulus134_B","orderSI=24","orderAI=35","0:3.5","35;",1,0,"A","B",0
"27","X_PAUOGDRHWC","English","0:22.1",1,0,0,0,0,0,0,0,1,0,0,0,0,0,1,0,1,0,1,0,0,0,0,1,86,"English",0,1,0,0,0,0,1,0,1,0,1,0,0,0,0,0,1,0,0,0,0,0,0,1,0,1,0,1,0,1,0,1,"English","one_play_two_responses","stimulus36_A","orderSI=58","orderAI=36","0:4.1","36;",1,0,"A","A",1
"28","X_PAUOGDRHWC","English","0:22.1",1,0,0,0,0,0,0,0,1,0,0,0,0,0,1,0,1,0,1,0,0,0,0,1,86,"English",0,1,0,0,0,0,1,0,1,0,1,0,0,0,0,0,1,0,0,0,0,0,0,1,0,1,0,1,0,1,0,1,"English","one_play_two_responses","stimulus38_B","orderSI=56","orderAI=37","0:3.8","37;",0,1,"B","B",1
"29","X_PAUOGDRHWC","English","0:22.1",1,0,0,0,0,0,0,0,1,0,0,0,0,0,1,0,1,0,1,0,0,0,0,1,86,"English",0,1,0,0,0,0,1,0,1,0,1,0,0,0,0,0,1,0,0,0,0,0,0,1,0,1,0,1,0,1,0,1,"English","one_play_two_responses","stimulus40_A","orderSI=54","orderAI=38","0:4.1","38;",0,1,"B","A",0
"30","X_PAUOGDRHWC","English","0:22.1",1,0,0,0,0,0,0,0,1,0,0,0,0,0,1,0,1,0,1,0,0,0,0,1,86,"English",0,1,0,0,0,0,1,0,1,0,1,0,0,0,0,0,1,0,0,0,0,0,0,1,0,1,0,1,0,1,0,1,"English","one_play_two_responses","stimulus94_B","orderSI=32","orderAI=39","0:3.5","39;",0,1,"B","B",1
"31","X_PAUOGDRHWC","English","0:22.1",1,0,0,0,0,0,0,0,1,0,0,0,0,0,1,0,1,0,1,0,0,0,0,1,86,"English",0,1,0,0,0,0,1,0,1,0,1,0,0,0,0,0,1,0,0,0,0,0,0,1,0,1,0,1,0,1,0,1,"English","one_play_two_responses","stimulus84_A","orderSI=42","orderAI=40","0:3.4","40;",0,1,"B","A",0
"32","X_PAUOGDRHWC","English","0:22.1",1,0,0,0,0,0,0,0,1,0,0,0,0,0,1,0,1,0,1,0,0,0,0,1,86,"English",0,1,0,0,0,0,1,0,1,0,1,0,0,0,0,0,1,0,0,0,0,0,0,1,0,1,0,1,0,1,0,1,"English","one_play_two_responses","stimulus141_A","orderSI=17","orderAI=41","0:4.9","41;",0,1,"B","A",0
"33","X_PAUOGDRHWC","English","0:22.1",1,0,0,0,0,0,0,0,1,0,0,0,0,0,1,0,1,0,1,0,0,0,0,1,86,"English",0,1,0,0,0,0,1,0,1,0,1,0,0,0,0,0,1,0,0,0,0,0,0,1,0,1,0,1,0,1,0,1,"English","one_play_two_responses","stimulus37_A","orderSI=57","orderAI=42","0:4.4","42;",1,0,"A","A",1
"34","X_PAUOGDRHWC","English","0:22.1",1,0,0,0,0,0,0,0,1,0,0,0,0,0,1,0,1,0,1,0,0,0,0,1,86,"English",0,1,0,0,0,0,1,0,1,0,1,0,0,0,0,0,1,0,0,0,0,0,0,1,0,1,0,1,0,1,0,1,"English","one_play_two_responses","stimulus142_B","orderSI=16","orderAI=43","0:4.2","43;",0,1,"B","B",1
"35","X_PAUOGDRHWC","English","0:22.1",1,0,0,0,0,0,0,0,1,0,0,0,0,0,1,0,1,0,1,0,0,0,0,1,86,"English",0,1,0,0,0,0,1,0,1,0,1,0,0,0,0,0,1,0,0,0,0,0,0,1,0,1,0,1,0,1,0,1,"English","one_play_two_responses","stimulus34_B","orderSI=60","orderAI=44","0:4.1","44;",1,0,"A","B",0
"36","X_PAUOGDRHWC","English","0:22.1",1,0,0,0,0,0,0,0,1,0,0,0,0,0,1,0,1,0,1,0,0,0,0,1,86,"English",0,1,0,0,0,0,1,0,1,0,1,0,0,0,0,0,1,0,0,0,0,0,0,1,0,1,0,1,0,1,0,1,"English","one_play_two_responses","stimulus132_A","orderSI=26","orderAI=45","0:3.4","45;",0,1,"B","A",0
"37","X_PAUOGDRHWC","English","0:22.1",1,0,0,0,0,0,0,0,1,0,0,0,0,0,1,0,1,0,1,0,0,0,0,1,86,"English",0,1,0,0,0,0,1,0,1,0,1,0,0,0,0,0,1,0,0,0,0,0,0,1,0,1,0,1,0,1,0,1,"English","one_play_two_responses","stimulus48_A","orderSI=46","orderAI=47","0:4.3","47;",0,1,"B","A",0
"38","X_PAUOGDRHWC","English","0:22.1",1,0,0,0,0,0,0,0,1,0,0,0,0,0,1,0,1,0,1,0,0,0,0,1,86,"English",0,1,0,0,0,0,1,0,1,0,1,0,0,0,0,0,1,0,0,0,0,0,0,1,0,1,0,1,0,1,0,1,"English","one_play_two_responses","stimulus138_B","orderSI=20","orderAI=48","0:3.5","48;",1,0,"A","B",0
"39","X_PAUOGDRHWC","English","0:22.1",1,0,0,0,0,0,0,0,1,0,0,0,0,0,1,0,1,0,1,0,0,0,0,1,86,"English",0,1,0,0,0,0,1,0,1,0,1,0,0,0,0,0,1,0,0,0,0,0,0,1,0,1,0,1,0,1,0,1,"English","one_play_two_responses","stimulus93_A","orderSI=33","orderAI=49","0:3.5","49;",0,1,"B","A",0
"40","X_PAUOGDRHWC","English","0:22.1",1,0,0,0,0,0,0,0,1,0,0,0,0,0,1,0,1,0,1,0,0,0,0,1,86,"English",0,1,0,0,0,0,1,0,1,0,1,0,0,0,0,0,1,0,0,0,0,0,0,1,0,1,0,1,0,1,0,1,"English","one_play_two_responses","stimulus43_B","orderSI=51","orderAI=50","0:3.9","50;",1,0,"A","B",0
"41","X_PAUOGDRHWC","English","0:22.1",1,0,0,0,0,0,0,0,1,0,0,0,0,0,1,0,1,0,1,0,0,0,0,1,86,"English",0,1,0,0,0,0,1,0,1,0,1,0,0,0,0,0,1,0,0,0,0,0,0,1,0,1,0,1,0,1,0,1,"English","one_play_two_responses","stimulus87_B","orderSI=39","orderAI=51","0:3.5","51;",0,1,"B","B",1
"42","X_PAUOGDRHWC","English","0:22.1",1,0,0,0,0,0,0,0,1,0,0,0,0,0,1,0,1,0,1,0,0,0,0,1,86,"English",0,1,0,0,0,0,1,0,1,0,1,0,0,0,0,0,1,0,0,0,0,0,0,1,0,1,0,1,0,1,0,1,"English","one_play_two_responses","stimulus44_A","orderSI=50","orderAI=52","0:4.1","52;",0,1,"B","A",0
"43","X_PAUOGDRHWC","English","0:22.1",1,0,0,0,0,0,0,0,1,0,0,0,0,0,1,0,1,0,1,0,0,0,0,1,86,"English",0,1,0,0,0,0,1,0,1,0,1,0,0,0,0,0,1,0,0,0,0,0,0,1,0,1,0,1,0,1,0,1,"English","one_play_two_responses","stimulus137_A","orderSI=21","orderAI=53","0:3.6","53;",1,0,"A","A",1
"44","X_PAUOGDRHWC","English","0:22.1",1,0,0,0,0,0,0,0,1,0,0,0,0,0,1,0,1,0,1,0,0,0,0,1,86,"English",0,1,0,0,0,0,1,0,1,0,1,0,0,0,0,0,1,0,0,0,0,0,0,1,0,1,0,1,0,1,0,1,"English","one_play_two_responses","stimulus41_A","orderSI=53","orderAI=54","0:3.8","54;",0,1,"B","A",0
"45","X_PAUOGDRHWC","English","0:22.1",1,0,0,0,0,0,0,0,1,0,0,0,0,0,1,0,1,0,1,0,0,0,0,1,86,"English",0,1,0,0,0,0,1,0,1,0,1,0,0,0,0,0,1,0,0,0,0,0,0,1,0,1,0,1,0,1,0,1,"English","one_play_two_responses","stimulus139_B","orderSI=19","orderAI=55","0:3.5","55;",1,0,"A","B",0
"46","X_PAUOGDRHWC","English","0:22.1",1,0,0,0,0,0,0,0,1,0,0,0,0,0,1,0,1,0,1,0,0,0,0,1,86,"English",0,1,0,0,0,0,1,0,1,0,1,0,0,0,0,0,1,0,0,0,0,0,0,1,0,1,0,1,0,1,0,1,"English","one_play_two_responses","stimulus33_A","orderSI=61","orderAI=56","0:4.0","56;",1,0,"A","A",1
"47","X_PAUOGDRHWC","English","0:22.1",1,0,0,0,0,0,0,0,1,0,0,0,0,0,1,0,1,0,1,0,0,0,0,1,86,"English",0,1,0,0,0,0,1,0,1,0,1,0,0,0,0,0,1,0,0,0,0,0,0,1,0,1,0,1,0,1,0,1,"English","one_play_two_responses","stimulus81_A","orderSI=45","orderAI=57","0:3.9","57;",0,1,"B","A",0
"48","X_PAUOGDRHWC","English","0:22.1",1,0,0,0,0,0,0,0,1,0,0,0,0,0,1,0,1,0,1,0,0,0,0,1,86,"English",0,1,0,0,0,0,1,0,1,0,1,0,0,0,0,0,1,0,0,0,0,0,0,1,0,1,0,1,0,1,0,1,"English","one_play_two_responses","stimulus144_A","orderSI=14","orderAI=58","0:3.2","58;",1,0,"A","A",1
"49","X_PAUOGDRHWC","English","0:22.1",1,0,0,0,0,0,0,0,1,0,0,0,0,0,1,0,1,0,1,0,0,0,0,1,86,"English",0,1,0,0,0,0,1,0,1,0,1,0,0,0,0,0,1,0,0,0,0,0,0,1,0,1,0,1,0,1,0,1,"English","one_play_two_responses","stimulus85_A","orderSI=41","orderAI=59","0:3.7","59;",1,0,"A","A",1
"50","X_PAUOGDRHWC","English","0:22.1",1,0,0,0,0,0,0,0,1,0,0,0,0,0,1,0,1,0,1,0,0,0,0,1,86,"English",0,1,0,0,0,0,1,0,1,0,1,0,0,0,0,0,1,0,0,0,0,0,0,1,0,1,0,1,0,1,0,1,"English","one_play_two_responses","stimulus39_B","orderSI=55","orderAI=60","0:4.0","60;",1,0,"A","B",0
"51","X_PAUOGDRHWC","English","0:22.1",1,0,0,0,0,0,0,0,1,0,0,0,0,0,1,0,1,0,1,0,0,0,0,1,86,"English",0,1,0,0,0,0,1,0,1,0,1,0,0,0,0,0,1,0,0,0,0,0,0,1,0,1,0,1,0,1,0,1,"English","one_play_two_responses","stimulus89_A","orderSI=37","orderAI=61","0:3.8","61;",0,1,"B","A",0
"52","X_PAUOGDRHWC","English","0:22.1",1,0,0,0,0,0,0,0,1,0,0,0,0,0,1,0,1,0,1,0,0,0,0,1,86,"English",0,1,0,0,0,0,1,0,1,0,1,0,0,0,0,0,1,0,0,0,0,0,0,1,0,1,0,1,0,1,0,1,"English","one_play_two_responses","stimulus47_B","orderSI=47","orderAI=62","0:3.8","62;",1,0,"A","B",0
"53","X_PAUOGDRHWC","English","0:22.1",1,0,0,0,0,0,0,0,1,0,0,0,0,0,1,0,1,0,1,0,0,0,0,1,86,"English",0,1,0,0,0,0,1,0,1,0,1,0,0,0,0,0,1,0,0,0,0,0,0,1,0,1,0,1,0,1,0,1,"English","one_play_two_responses","stimulus18_B","orderSI=110","orderAI=64","0:4.7","64;",1,0,"A","B",0
"54","X_PAUOGDRHWC","English","0:22.1",1,0,0,0,0,0,0,0,1,0,0,0,0,0,1,0,1,0,1,0,0,0,0,1,86,"English",0,1,0,0,0,0,1,0,1,0,1,0,0,0,0,0,1,0,0,0,0,0,0,1,0,1,0,1,0,1,0,1,"English","one_play_two_responses","stimulus121_A","orderSI=71","orderAI=65","0:3.7","65;",0,1,"B","A",0
"55","X_PAUOGDRHWC","English","0:22.1",1,0,0,0,0,0,0,0,1,0,0,0,0,0,1,0,1,0,1,0,0,0,0,1,86,"English",0,1,0,0,0,0,1,0,1,0,1,0,0,0,0,0,1,0,0,0,0,0,0,1,0,1,0,1,0,1,0,1,"English","one_play_two_responses","stimulus115_B","orderSI=77","orderAI=66","0:3.3","66;",1,0,"A","B",0
"56","X_PAUOGDRHWC","English","0:22.1",1,0,0,0,0,0,0,0,1,0,0,0,0,0,1,0,1,0,1,0,0,0,0,1,86,"English",0,1,0,0,0,0,1,0,1,0,1,0,0,0,0,0,1,0,0,0,0,0,0,1,0,1,0,1,0,1,0,1,"English","one_play_two_responses","stimulus78_B","orderSI=82","orderAI=67","0:3.3","67;",1,0,"A","B",0
"57","X_PAUOGDRHWC","English","0:22.1",1,0,0,0,0,0,0,0,1,0,0,0,0,0,1,0,1,0,1,0,0,0,0,1,86,"English",0,1,0,0,0,0,1,0,1,0,1,0,0,0,0,0,1,0,0,0,0,0,0,1,0,1,0,1,0,1,0,1,"English","one_play_two_responses","stimulus25_A","orderSI=103","orderAI=68","0:4.0","68;",1,0,"A","A",1
"58","X_PAUOGDRHWC","English","0:22.1",1,0,0,0,0,0,0,0,1,0,0,0,0,0,1,0,1,0,1,0,0,0,0,1,86,"English",0,1,0,0,0,0,1,0,1,0,1,0,0,0,0,0,1,0,0,0,0,0,0,1,0,1,0,1,0,1,0,1,"English","one_play_two_responses","stimulus19_B","orderSI=109","orderAI=69","0:4.0","69;",0,1,"B","B",1
"59","X_PAUOGDRHWC","English","0:22.1",1,0,0,0,0,0,0,0,1,0,0,0,0,0,1,0,1,0,1,0,0,0,0,1,86,"English",0,1,0,0,0,0,1,0,1,0,1,0,0,0,0,0,1,0,0,0,0,0,0,1,0,1,0,1,0,1,0,1,"English","one_play_two_responses","stimulus22_B","orderSI=106","orderAI=70","0:4.0","70;",1,0,"A","B",0
"60","X_PAUOGDRHWC","English","0:22.1",1,0,0,0,0,0,0,0,1,0,0,0,0,0,1,0,1,0,1,0,0,0,0,1,86,"English",0,1,0,0,0,0,1,0,1,0,1,0,0,0,0,0,1,0,0,0,0,0,0,1,0,1,0,1,0,1,0,1,"English","one_play_two_responses","stimulus29_A","orderSI=99","orderAI=71","0:4.1","71;",1,0,"A","A",1
"61","X_PAUOGDRHWC","English","0:22.1",1,0,0,0,0,0,0,0,1,0,0,0,0,0,1,0,1,0,1,0,0,0,0,1,86,"English",0,1,0,0,0,0,1,0,1,0,1,0,0,0,0,0,1,0,0,0,0,0,0,1,0,1,0,1,0,1,0,1,"English","one_play_two_responses","stimulus27_B","orderSI=101","orderAI=72","0:4.0","72;",1,0,"A","B",0
"62","X_PAUOGDRHWC","English","0:22.1",1,0,0,0,0,0,0,0,1,0,0,0,0,0,1,0,1,0,1,0,0,0,0,1,86,"English",0,1,0,0,0,0,1,0,1,0,1,0,0,0,0,0,1,0,0,0,0,0,0,1,0,1,0,1,0,1,0,1,"English","one_play_two_responses","stimulus73_A","orderSI=87","orderAI=73","0:3.5","73;",0,1,"B","A",0
"63","X_PAUOGDRHWC","English","0:22.1",1,0,0,0,0,0,0,0,1,0,0,0,0,0,1,0,1,0,1,0,0,0,0,1,86,"English",0,1,0,0,0,0,1,0,1,0,1,0,0,0,0,0,1,0,0,0,0,0,0,1,0,1,0,1,0,1,0,1,"English","one_play_two_responses","stimulus119_B","orderSI=73","orderAI=74","0:3.3","74;",1,0,"A","B",0
"64","X_PAUOGDRHWC","English","0:22.1",1,0,0,0,0,0,0,0,1,0,0,0,0,0,1,0,1,0,1,0,0,0,0,1,86,"English",0,1,0,0,0,0,1,0,1,0,1,0,0,0,0,0,1,0,0,0,0,0,0,1,0,1,0,1,0,1,0,1,"English","one_play_two_responses","stimulus77_A","orderSI=83","orderAI=75","0:3.6","75;",1,0,"A","A",1
"65","X_PAUOGDRHWC","English","0:22.1",1,0,0,0,0,0,0,0,1,0,0,0,0,0,1,0,1,0,1,0,0,0,0,1,86,"English",0,1,0,0,0,0,1,0,1,0,1,0,0,0,0,0,1,0,0,0,0,0,0,1,0,1,0,1,0,1,0,1,"English","one_play_two_responses","stimulus74_B","orderSI=86","orderAI=76","0:3.8","76;",0,1,"B","B",1
"66","X_PAUOGDRHWC","English","0:22.1",1,0,0,0,0,0,0,0,1,0,0,0,0,0,1,0,1,0,1,0,0,0,0,1,86,"English",0,1,0,0,0,0,1,0,1,0,1,0,0,0,0,0,1,0,0,0,0,0,0,1,0,1,0,1,0,1,0,1,"English","one_play_two_responses","stimulus21_A","orderSI=107","orderAI=77","0:4.3","77;",1,0,"A","A",1
"67","X_PAUOGDRHWC","English","0:22.1",1,0,0,0,0,0,0,0,1,0,0,0,0,0,1,0,1,0,1,0,0,0,0,1,86,"English",0,1,0,0,0,0,1,0,1,0,1,0,0,0,0,0,1,0,0,0,0,0,0,1,0,1,0,1,0,1,0,1,"English","one_play_two_responses","stimulus126_B","orderSI=66","orderAI=78","0:3.2","78;",1,0,"A","B",0
"68","X_PAUOGDRHWC","English","0:22.1",1,0,0,0,0,0,0,0,1,0,0,0,0,0,1,0,1,0,1,0,0,0,0,1,86,"English",0,1,0,0,0,0,1,0,1,0,1,0,0,0,0,0,1,0,0,0,0,0,0,1,0,1,0,1,0,1,0,1,"English","one_play_two_responses","stimulus23_B","orderSI=105","orderAI=79","0:3.9","79;",1,0,"A","B",0
"69","X_PAUOGDRHWC","English","0:22.1",1,0,0,0,0,0,0,0,1,0,0,0,0,0,1,0,1,0,1,0,0,0,0,1,86,"English",0,1,0,0,0,0,1,0,1,0,1,0,0,0,0,0,1,0,0,0,0,0,0,1,0,1,0,1,0,1,0,1,"English","one_play_two_responses","stimulus118_B","orderSI=74","orderAI=80","0:3.6","80;",1,0,"A","B",0
"70","X_PAUOGDRHWC","English","0:22.1",1,0,0,0,0,0,0,0,1,0,0,0,0,0,1,0,1,0,1,0,0,0,0,1,86,"English",0,1,0,0,0,0,1,0,1,0,1,0,0,0,0,0,1,0,0,0,0,0,0,1,0,1,0,1,0,1,0,1,"English","one_play_two_responses","stimulus71_B","orderSI=89","orderAI=81","0:3.7","81;",1,0,"A","B",0
"71","X_PAUOGDRHWC","English","0:22.1",1,0,0,0,0,0,0,0,1,0,0,0,0,0,1,0,1,0,1,0,0,0,0,1,86,"English",0,1,0,0,0,0,1,0,1,0,1,0,0,0,0,0,1,0,0,0,0,0,0,1,0,1,0,1,0,1,0,1,"English","one_play_two_responses","stimulus79_B","orderSI=81","orderAI=82","0:3.7","82;",1,0,"A","B",0
"72","X_PAUOGDRHWC","English","0:22.1",1,0,0,0,0,0,0,0,1,0,0,0,0,0,1,0,1,0,1,0,0,0,0,1,86,"English",0,1,0,0,0,0,1,0,1,0,1,0,0,0,0,0,1,0,0,0,0,0,0,1,0,1,0,1,0,1,0,1,"English","one_play_two_responses","stimulus31_B","orderSI=97","orderAI=83","0:3.7","83;",1,0,"A","B",0
"73","X_PAUOGDRHWC","English","0:22.1",1,0,0,0,0,0,0,0,1,0,0,0,0,0,1,0,1,0,1,0,0,0,0,1,86,"English",0,1,0,0,0,0,1,0,1,0,1,0,0,0,0,0,1,0,0,0,0,0,0,1,0,1,0,1,0,1,0,1,"English","one_play_two_responses","stimulus66_B","orderSI=94","orderAI=84","0:3.6","84;",1,0,"A","B",0
"74","X_PAUOGDRHWC","English","0:22.1",1,0,0,0,0,0,0,0,1,0,0,0,0,0,1,0,1,0,1,0,0,0,0,1,86,"English",0,1,0,0,0,0,1,0,1,0,1,0,0,0,0,0,1,0,0,0,0,0,0,1,0,1,0,1,0,1,0,1,"English","one_play_two_responses","stimulus17_A","orderSI=111","orderAI=85","0:3.8","85;",1,0,"A","A",1
"75","X_PAUOGDRHWC","English","0:22.1",1,0,0,0,0,0,0,0,1,0,0,0,0,0,1,0,1,0,1,0,0,0,0,1,86,"English",0,1,0,0,0,0,1,0,1,0,1,0,0,0,0,0,1,0,0,0,0,0,0,1,0,1,0,1,0,1,0,1,"English","one_play_two_responses","stimulus117_A","orderSI=75","orderAI=86","0:3.5","86;",0,1,"B","A",0
"76","X_PAUOGDRHWC","English","0:22.1",1,0,0,0,0,0,0,0,1,0,0,0,0,0,1,0,1,0,1,0,0,0,0,1,86,"English",0,1,0,0,0,0,1,0,1,0,1,0,0,0,0,0,1,0,0,0,0,0,0,1,0,1,0,1,0,1,0,1,"English","one_play_two_responses","stimulus125_A","orderSI=67","orderAI=87","0:3.6","87;",0,1,"B","A",0
"77","X_PAUOGDRHWC","English","0:22.1",1,0,0,0,0,0,0,0,1,0,0,0,0,0,1,0,1,0,1,0,0,0,0,1,86,"English",0,1,0,0,0,0,1,0,1,0,1,0,0,0,0,0,1,0,0,0,0,0,0,1,0,1,0,1,0,1,0,1,"English","one_play_two_responses","stimulus113_A","orderSI=79","orderAI=88","0:3.7","88;",0,1,"B","A",0
"78","X_PAUOGDRHWC","English","0:22.1",1,0,0,0,0,0,0,0,1,0,0,0,0,0,1,0,1,0,1,0,0,0,0,1,86,"English",0,1,0,0,0,0,1,0,1,0,1,0,0,0,0,0,1,0,0,0,0,0,0,1,0,1,0,1,0,1,0,1,"English","one_play_two_responses","stimulus72_A","orderSI=88","orderAI=89","0:3.7","89;",0,1,"B","A",0
"79","X_PAUOGDRHWC","English","0:22.1",1,0,0,0,0,0,0,0,1,0,0,0,0,0,1,0,1,0,1,0,0,0,0,1,86,"English",0,1,0,0,0,0,1,0,1,0,1,0,0,0,0,0,1,0,0,0,0,0,0,1,0,1,0,1,0,1,0,1,"English","one_play_two_responses","stimulus28_A","orderSI=100","orderAI=90","0:3.8","90;",0,1,"B","A",0
"80","X_PAUOGDRHWC","English","0:22.1",1,0,0,0,0,0,0,0,1,0,0,0,0,0,1,0,1,0,1,0,0,0,0,1,86,"English",0,1,0,0,0,0,1,0,1,0,1,0,0,0,0,0,1,0,0,0,0,0,0,1,0,1,0,1,0,1,0,1,"English","one_play_two_responses","stimulus67_B","orderSI=93","orderAI=91","0:3.7","91;",1,0,"A","B",0
"81","X_PAUOGDRHWC","English","0:22.1",1,0,0,0,0,0,0,0,1,0,0,0,0,0,1,0,1,0,1,0,0,0,0,1,86,"English",0,1,0,0,0,0,1,0,1,0,1,0,0,0,0,0,1,0,0,0,0,0,0,1,0,1,0,1,0,1,0,1,"English","one_play_two_responses","stimulus76_A","orderSI=84","orderAI=92","0:4.1","92;",0,1,"B","A",0
"82","X_PAUOGDRHWC","English","0:22.1",1,0,0,0,0,0,0,0,1,0,0,0,0,0,1,0,1,0,1,0,0,0,0,1,86,"English",0,1,0,0,0,0,1,0,1,0,1,0,0,0,0,0,1,0,0,0,0,0,0,1,0,1,0,1,0,1,0,1,"English","one_play_two_responses","stimulus70_B","orderSI=90","orderAI=93","0:4.1","93;",0,1,"B","B",1
"83","X_PAUOGDRHWC","English","0:22.1",1,0,0,0,0,0,0,0,1,0,0,0,0,0,1,0,1,0,1,0,0,0,0,1,86,"English",0,1,0,0,0,0,1,0,1,0,1,0,0,0,0,0,1,0,0,0,0,0,0,1,0,1,0,1,0,1,0,1,"English","one_play_two_responses","stimulus127_B","orderSI=65","orderAI=94","0:3.7","94;",1,0,"A","B",0
"84","X_PAUOGDRHWC","English","0:22.1",1,0,0,0,0,0,0,0,1,0,0,0,0,0,1,0,1,0,1,0,0,0,0,1,86,"English",0,1,0,0,0,0,1,0,1,0,1,0,0,0,0,0,1,0,0,0,0,0,0,1,0,1,0,1,0,1,0,1,"English","one_play_two_responses","stimulus122_B","orderSI=70","orderAI=95","0:3.7","95;",0,1,"B","B",1
"85","X_PAUOGDRHWC","English","0:22.1",1,0,0,0,0,0,0,0,1,0,0,0,0,0,1,0,1,0,1,0,0,0,0,1,86,"English",0,1,0,0,0,0,1,0,1,0,1,0,0,0,0,0,1,0,0,0,0,0,0,1,0,1,0,1,0,1,0,1,"English","one_play_two_responses","stimulus32_A","orderSI=96","orderAI=96","0:3.8","96;",0,1,"B","A",0
"86","X_PAUOGDRHWC","English","0:22.1",1,0,0,0,0,0,0,0,1,0,0,0,0,0,1,0,1,0,1,0,0,0,0,1,86,"English",0,1,0,0,0,0,1,0,1,0,1,0,0,0,0,0,1,0,0,0,0,0,0,1,0,1,0,1,0,1,0,1,"English","one_play_two_responses","stimulus75_B","orderSI=85","orderAI=98","0:4.0","98;",0,1,"B","B",1
"87","X_PAUOGDRHWC","English","0:22.1",1,0,0,0,0,0,0,0,1,0,0,0,0,0,1,0,1,0,1,0,0,0,0,1,86,"English",0,1,0,0,0,0,1,0,1,0,1,0,0,0,0,0,1,0,0,0,0,0,0,1,0,1,0,1,0,1,0,1,"English","one_play_two_responses","stimulus123_B","orderSI=69","orderAI=99","0:3.7","99;",0,1,"B","B",1
"88","X_PAUOGDRHWC","English","0:22.1",1,0,0,0,0,0,0,0,1,0,0,0,0,0,1,0,1,0,1,0,0,0,0,1,86,"English",0,1,0,0,0,0,1,0,1,0,1,0,0,0,0,0,1,0,0,0,0,0,0,1,0,1,0,1,0,1,0,1,"English","one_play_two_responses","stimulus128_A","orderSI=64","orderAI=100","0:3.7","100;",1,0,"A","A",1
"89","X_PAUOGDRHWC","English","0:22.1",1,0,0,0,0,0,0,0,1,0,0,0,0,0,1,0,1,0,1,0,0,0,0,1,86,"English",0,1,0,0,0,0,1,0,1,0,1,0,0,0,0,0,1,0,0,0,0,0,0,1,0,1,0,1,0,1,0,1,"English","one_play_two_responses","stimulus80_A","orderSI=80","orderAI=101","0:3.5","101;",1,0,"A","A",1
"90","X_PAUOGDRHWC","English","0:22.1",1,0,0,0,0,0,0,0,1,0,0,0,0,0,1,0,1,0,1,0,0,0,0,1,86,"English",0,1,0,0,0,0,1,0,1,0,1,0,0,0,0,0,1,0,0,0,0,0,0,1,0,1,0,1,0,1,0,1,"English","one_play_two_responses","stimulus30_B","orderSI=98","orderAI=102","0:4.0","102;",0,1,"B","B",1
"91","X_PAUOGDRHWC","English","0:22.1",1,0,0,0,0,0,0,0,1,0,0,0,0,0,1,0,1,0,1,0,0,0,0,1,86,"English",0,1,0,0,0,0,1,0,1,0,1,0,0,0,0,0,1,0,0,0,0,0,0,1,0,1,0,1,0,1,0,1,"English","one_play_two_responses","stimulus24_A","orderSI=104","orderAI=103","0:4.1","103;",0,1,"B","A",0
"92","X_PAUOGDRHWC","English","0:22.1",1,0,0,0,0,0,0,0,1,0,0,0,0,0,1,0,1,0,1,0,0,0,0,1,86,"English",0,1,0,0,0,0,1,0,1,0,1,0,0,0,0,0,1,0,0,0,0,0,0,1,0,1,0,1,0,1,0,1,"English","one_play_two_responses","stimulus124_A","orderSI=68","orderAI=104","0:3.9","104;",1,0,"A","A",1
"93","X_PAUOGDRHWC","English","0:22.1",1,0,0,0,0,0,0,0,1,0,0,0,0,0,1,0,1,0,1,0,0,0,0,1,86,"English",0,1,0,0,0,0,1,0,1,0,1,0,0,0,0,0,1,0,0,0,0,0,0,1,0,1,0,1,0,1,0,1,"English","one_play_two_responses","stimulus69_A","orderSI=91","orderAI=105","0:3.0","105;",0,1,"B","A",0
"94","X_PAUOGDRHWC","English","0:22.1",1,0,0,0,0,0,0,0,1,0,0,0,0,0,1,0,1,0,1,0,0,0,0,1,86,"English",0,1,0,0,0,0,1,0,1,0,1,0,0,0,0,0,1,0,0,0,0,0,0,1,0,1,0,1,0,1,0,1,"English","one_play_two_responses","stimulus68_A","orderSI=92","orderAI=106","0:3.4","106;",0,1,"B","A",0
"95","X_PAUOGDRHWC","English","0:22.1",1,0,0,0,0,0,0,0,1,0,0,0,0,0,1,0,1,0,1,0,0,0,0,1,86,"English",0,1,0,0,0,0,1,0,1,0,1,0,0,0,0,0,1,0,0,0,0,0,0,1,0,1,0,1,0,1,0,1,"English","one_play_two_responses","stimulus120_A","orderSI=72","orderAI=107","0:3.4","107;",0,1,"B","A",0
"96","X_PAUOGDRHWC","English","0:22.1",1,0,0,0,0,0,0,0,1,0,0,0,0,0,1,0,1,0,1,0,0,0,0,1,86,"English",0,1,0,0,0,0,1,0,1,0,1,0,0,0,0,0,1,0,0,0,0,0,0,1,0,1,0,1,0,1,0,1,"English","one_play_two_responses","stimulus65_A","orderSI=95","orderAI=108","0:3.8","108;",0,1,"B","A",0
"97","X_PAUOGDRHWC","English","0:22.1",1,0,0,0,0,0,0,0,1,0,0,0,0,0,1,0,1,0,1,0,0,0,0,1,86,"English",0,1,0,0,0,0,1,0,1,0,1,0,0,0,0,0,1,0,0,0,0,0,0,1,0,1,0,1,0,1,0,1,"English","one_play_two_responses","stimulus116_A","orderSI=76","orderAI=109","0:3.4","109;",1,0,"A","A",1
"98","X_PAUOGDRHWC","English","0:22.1",1,0,0,0,0,0,0,0,1,0,0,0,0,0,1,0,1,0,1,0,0,0,0,1,86,"English",0,1,0,0,0,0,1,0,1,0,1,0,0,0,0,0,1,0,0,0,0,0,0,1,0,1,0,1,0,1,0,1,"English","one_play_two_responses","stimulus26_B","orderSI=102","orderAI=110","0:3.9","110;",1,0,"A","B",0
"99","X_PAUOGDRHWC","English","0:22.1",1,0,0,0,0,0,0,0,1,0,0,0,0,0,1,0,1,0,1,0,0,0,0,1,86,"English",0,1,0,0,0,0,1,0,1,0,1,0,0,0,0,0,1,0,0,0,0,0,0,1,0,1,0,1,0,1,0,1,"English","one_play_two_responses","stimulus20_A","orderSI=108","orderAI=111","0:4.0","111;",1,0,"A","A",1
"100","X_PAUOGDRHWC","English","0:22.1",1,0,0,0,0,0,0,0,1,0,0,0,0,0,1,0,1,0,1,0,0,0,0,1,86,"English",0,1,0,0,0,0,1,0,1,0,1,0,0,0,0,0,1,0,0,0,0,0,0,1,0,1,0,1,0,1,0,1,"English","one_play_two_responses","stimulus114_B","orderSI=78","orderAI=112","0:3.9","112;",1,0,"A","B",0
"101","X_PAUOGDRHWC","English","0:22.1",1,0,0,0,0,0,0,0,1,0,0,0,0,0,1,0,1,0,1,0,0,0,0,1,86,"English",0,1,0,0,0,0,1,0,1,0,1,0,0,0,0,0,1,0,0,0,0,0,0,1,0,1,0,1,0,1,0,1,"English","one_play_two_responses","stimulus108_A","orderSI=118","orderAI=114","0:4.3","114;",0,1,"B","A",0
"102","X_PAUOGDRHWC","English","0:22.1",1,0,0,0,0,0,0,0,1,0,0,0,0,0,1,0,1,0,1,0,0,0,0,1,86,"English",0,1,0,0,0,0,1,0,1,0,1,0,0,0,0,0,1,0,0,0,0,0,0,1,0,1,0,1,0,1,0,1,"English","one_play_two_responses","stimulus60_A","orderSI=134","orderAI=115","0:4.0","115;",0,1,"B","A",0
"103","X_PAUOGDRHWC","English","0:22.1",1,0,0,0,0,0,0,0,1,0,0,0,0,0,1,0,1,0,1,0,0,0,0,1,86,"English",0,1,0,0,0,0,1,0,1,0,1,0,0,0,0,0,1,0,0,0,0,0,0,1,0,1,0,1,0,1,0,1,"English","one_play_two_responses","stimulus11_B","orderSI=151","orderAI=116","0:4.6","116;",1,0,"A","B",0
"104","X_PAUOGDRHWC","English","0:22.1",1,0,0,0,0,0,0,0,1,0,0,0,0,0,1,0,1,0,1,0,0,0,0,1,86,"English",0,1,0,0,0,0,1,0,1,0,1,0,0,0,0,0,1,0,0,0,0,0,0,1,0,1,0,1,0,1,0,1,"English","one_play_two_responses","stimulus109_A","orderSI=117","orderAI=117","0:3.0","117;",1,0,"A","A",1
"105","X_PAUOGDRHWC","English","0:22.1",1,0,0,0,0,0,0,0,1,0,0,0,0,0,1,0,1,0,1,0,0,0,0,1,86,"English",0,1,0,0,0,0,1,0,1,0,1,0,0,0,0,0,1,0,0,0,0,0,0,1,0,1,0,1,0,1,0,1,"English","one_play_two_responses","stimulus100_A","orderSI=126","orderAI=118","0:3.8","118;",0,1,"B","A",0
"106","X_PAUOGDRHWC","English","0:22.1",1,0,0,0,0,0,0,0,1,0,0,0,0,0,1,0,1,0,1,0,0,0,0,1,86,"English",0,1,0,0,0,0,1,0,1,0,1,0,0,0,0,0,1,0,0,0,0,0,0,1,0,1,0,1,0,1,0,1,"English","one_play_two_responses","stimulus8_A","orderSI=154","orderAI=119","0:3.3","119;",1,0,"A","A",1
"107","X_PAUOGDRHWC","English","0:22.1",1,0,0,0,0,0,0,0,1,0,0,0,0,0,1,0,1,0,1,0,0,0,0,1,86,"English",0,1,0,0,0,0,1,0,1,0,1,0,0,0,0,0,1,0,0,0,0,0,0,1,0,1,0,1,0,1,0,1,"English","one_play_two_responses","stimulus57_A","orderSI=137","orderAI=120","0:4.0","120;",0,1,"B","A",0
"108","X_PAUOGDRHWC","English","0:22.1",1,0,0,0,0,0,0,0,1,0,0,0,0,0,1,0,1,0,1,0,0,0,0,1,86,"English",0,1,0,0,0,0,1,0,1,0,1,0,0,0,0,0,1,0,0,0,0,0,0,1,0,1,0,1,0,1,0,1,"English","one_play_two_responses","stimulus112_A","orderSI=114","orderAI=121","0:3.5","121;",1,0,"A","A",1
"109","X_PAUOGDRHWC","English","0:22.1",1,0,0,0,0,0,0,0,1,0,0,0,0,0,1,0,1,0,1,0,0,0,0,1,86,"English",0,1,0,0,0,0,1,0,1,0,1,0,0,0,0,0,1,0,0,0,0,0,0,1,0,1,0,1,0,1,0,1,"English","one_play_two_responses","stimulus2_B","orderSI=160","orderAI=122","0:4.0","122;",0,1,"B","B",1
"110","X_PAUOGDRHWC","English","0:22.1",1,0,0,0,0,0,0,0,1,0,0,0,0,0,1,0,1,0,1,0,0,0,0,1,86,"English",0,1,0,0,0,0,1,0,1,0,1,0,0,0,0,0,1,0,0,0,0,0,0,1,0,1,0,1,0,1,0,1,"English","one_play_two_responses","stimulus14_B","orderSI=148","orderAI=123","0:3.9","123;",0,1,"B","B",1
"111","X_PAUOGDRHWC","English","0:22.1",1,0,0,0,0,0,0,0,1,0,0,0,0,0,1,0,1,0,1,0,0,0,0,1,86,"English",0,1,0,0,0,0,1,0,1,0,1,0,0,0,0,0,1,0,0,0,0,0,0,1,0,1,0,1,0,1,0,1,"English","one_play_two_responses","stimulus56_A","orderSI=138","orderAI=124","0:3.4","124;",0,1,"B","A",0
"112","X_PAUOGDRHWC","English","0:22.1",1,0,0,0,0,0,0,0,1,0,0,0,0,0,1,0,1,0,1,0,0,0,0,1,86,"English",0,1,0,0,0,0,1,0,1,0,1,0,0,0,0,0,1,0,0,0,0,0,0,1,0,1,0,1,0,1,0,1,"English","one_play_two_responses","stimulus64_A","orderSI=130","orderAI=125","0:3.3","125;",1,0,"A","A",1
"113","X_PAUOGDRHWC","English","0:22.1",1,0,0,0,0,0,0,0,1,0,0,0,0,0,1,0,1,0,1,0,0,0,0,1,86,"English",0,1,0,0,0,0,1,0,1,0,1,0,0,0,0,0,1,0,0,0,0,0,0,1,0,1,0,1,0,1,0,1,"English","one_play_two_responses","stimulus59_B","orderSI=135","orderAI=126","0:3.6","126;",0,1,"B","B",1
"114","X_PAUOGDRHWC","English","0:22.1",1,0,0,0,0,0,0,0,1,0,0,0,0,0,1,0,1,0,1,0,0,0,0,1,86,"English",0,1,0,0,0,0,1,0,1,0,1,0,0,0,0,0,1,0,0,0,0,0,0,1,0,1,0,1,0,1,0,1,"English","one_play_two_responses","stimulus61_A","orderSI=133","orderAI=127","0:4.2","127;",1,0,"A","A",1
"115","X_PAUOGDRHWC","English","0:22.1",1,0,0,0,0,0,0,0,1,0,0,0,0,0,1,0,1,0,1,0,0,0,0,1,86,"English",0,1,0,0,0,0,1,0,1,0,1,0,0,0,0,0,1,0,0,0,0,0,0,1,0,1,0,1,0,1,0,1,"English","one_play_two_responses","stimulus99_B","orderSI=127","orderAI=128","0:3.7","128;",1,0,"A","B",0
"116","X_PAUOGDRHWC","English","0:22.1",1,0,0,0,0,0,0,0,1,0,0,0,0,0,1,0,1,0,1,0,0,0,0,1,86,"English",0,1,0,0,0,0,1,0,1,0,1,0,0,0,0,0,1,0,0,0,0,0,0,1,0,1,0,1,0,1,0,1,"English","one_play_two_responses","stimulus4_A","orderSI=158","orderAI=129","0:3.7","129;",0,1,"B","A",0
"117","X_PAUOGDRHWC","English","0:22.1",1,0,0,0,0,0,0,0,1,0,0,0,0,0,1,0,1,0,1,0,0,0,0,1,86,"English",0,1,0,0,0,0,1,0,1,0,1,0,0,0,0,0,1,0,0,0,0,0,0,1,0,1,0,1,0,1,0,1,"English","one_play_two_responses","stimulus16_A","orderSI=146","orderAI=130","0:4.1","130;",1,0,"A","A",1
"118","X_PAUOGDRHWC","English","0:22.1",1,0,0,0,0,0,0,0,1,0,0,0,0,0,1,0,1,0,1,0,0,0,0,1,86,"English",0,1,0,0,0,0,1,0,1,0,1,0,0,0,0,0,1,0,0,0,0,0,0,1,0,1,0,1,0,1,0,1,"English","one_play_two_responses","stimulus102_B","orderSI=124","orderAI=131","0:3.5","131;",1,0,"A","B",0
"119","X_PAUOGDRHWC","English","0:22.1",1,0,0,0,0,0,0,0,1,0,0,0,0,0,1,0,1,0,1,0,0,0,0,1,86,"English",0,1,0,0,0,0,1,0,1,0,1,0,0,0,0,0,1,0,0,0,0,0,0,1,0,1,0,1,0,1,0,1,"English","one_play_two_responses","stimulus6_B","orderSI=156","orderAI=132","0:3.9","132;",1,0,"A","B",0
"120","X_PAUOGDRHWC","English","0:22.1",1,0,0,0,0,0,0,0,1,0,0,0,0,0,1,0,1,0,1,0,0,0,0,1,86,"English",0,1,0,0,0,0,1,0,1,0,1,0,0,0,0,0,1,0,0,0,0,0,0,1,0,1,0,1,0,1,0,1,"English","one_play_two_responses","stimulus54_B","orderSI=140","orderAI=133","0:3.9","133;",0,1,"B","B",1
"121","X_PAUOGDRHWC","English","0:22.1",1,0,0,0,0,0,0,0,1,0,0,0,0,0,1,0,1,0,1,0,0,0,0,1,86,"English",0,1,0,0,0,0,1,0,1,0,1,0,0,0,0,0,1,0,0,0,0,0,0,1,0,1,0,1,0,1,0,1,"English","one_play_two_responses","stimulus49_A","orderSI=145","orderAI=134","0:4.0","134;",0,1,"B","A",0
"122","X_PAUOGDRHWC","English","0:22.1",1,0,0,0,0,0,0,0,1,0,0,0,0,0,1,0,1,0,1,0,0,0,0,1,86,"English",0,1,0,0,0,0,1,0,1,0,1,0,0,0,0,0,1,0,0,0,0,0,0,1,0,1,0,1,0,1,0,1,"English","one_play_two_responses","stimulus101_A","orderSI=125","orderAI=135","0:3.5","135;",0,1,"B","A",0
"123","X_PAUOGDRHWC","English","0:22.1",1,0,0,0,0,0,0,0,1,0,0,0,0,0,1,0,1,0,1,0,0,0,0,1,86,"English",0,1,0,0,0,0,1,0,1,0,1,0,0,0,0,0,1,0,0,0,0,0,0,1,0,1,0,1,0,1,0,1,"English","one_play_two_responses","stimulus9_A","orderSI=153","orderAI=136","0:3.7","136;",1,0,"A","A",1
"124","X_PAUOGDRHWC","English","0:22.1",1,0,0,0,0,0,0,0,1,0,0,0,0,0,1,0,1,0,1,0,0,0,0,1,86,"English",0,1,0,0,0,0,1,0,1,0,1,0,0,0,0,0,1,0,0,0,0,0,0,1,0,1,0,1,0,1,0,1,"English","one_play_two_responses","stimulus52_A","orderSI=142","orderAI=137","0:4.2","137;",1,0,"A","A",1
"125","X_PAUOGDRHWC","English","0:22.1",1,0,0,0,0,0,0,0,1,0,0,0,0,0,1,0,1,0,1,0,0,0,0,1,86,"English",0,1,0,0,0,0,1,0,1,0,1,0,0,0,0,0,1,0,0,0,0,0,0,1,0,1,0,1,0,1,0,1,"English","one_play_two_responses","stimulus10_B","orderSI=152","orderAI=138","0:4.3","138;",0,1,"B","B",1
"126","X_PAUOGDRHWC","English","0:22.1",1,0,0,0,0,0,0,0,1,0,0,0,0,0,1,0,1,0,1,0,0,0,0,1,86,"English",0,1,0,0,0,0,1,0,1,0,1,0,0,0,0,0,1,0,0,0,0,0,0,1,0,1,0,1,0,1,0,1,"English","one_play_two_responses","stimulus62_B","orderSI=132","orderAI=139","0:4.0","139;",1,0,"A","B",0
"127","X_PAUOGDRHWC","English","0:22.1",1,0,0,0,0,0,0,0,1,0,0,0,0,0,1,0,1,0,1,0,0,0,0,1,86,"English",0,1,0,0,0,0,1,0,1,0,1,0,0,0,0,0,1,0,0,0,0,0,0,1,0,1,0,1,0,1,0,1,"English","one_play_two_responses","stimulus50_B","orderSI=144","orderAI=140","0:3.8","140;",0,1,"B","B",1
"128","X_PAUOGDRHWC","English","0:22.1",1,0,0,0,0,0,0,0,1,0,0,0,0,0,1,0,1,0,1,0,0,0,0,1,86,"English",0,1,0,0,0,0,1,0,1,0,1,0,0,0,0,0,1,0,0,0,0,0,0,1,0,1,0,1,0,1,0,1,"English","one_play_two_responses","stimulus63_B","orderSI=131","orderAI=141","0:3.1","141;",1,0,"A","B",0
"129","X_PAUOGDRHWC","English","0:22.1",1,0,0,0,0,0,0,0,1,0,0,0,0,0,1,0,1,0,1,0,0,0,0,1,86,"English",0,1,0,0,0,0,1,0,1,0,1,0,0,0,0,0,1,0,0,0,0,0,0,1,0,1,0,1,0,1,0,1,"English","one_play_two_responses","stimulus55_B","orderSI=139","orderAI=142","0:4.0","142;",1,0,"A","B",0
"130","X_PAUOGDRHWC","English","0:22.1",1,0,0,0,0,0,0,0,1,0,0,0,0,0,1,0,1,0,1,0,0,0,0,1,86,"English",0,1,0,0,0,0,1,0,1,0,1,0,0,0,0,0,1,0,0,0,0,0,0,1,0,1,0,1,0,1,0,1,"English","one_play_two_responses","stimulus5_A","orderSI=157","orderAI=143","0:4.0","143;",1,0,"A","A",1
"131","X_PAUOGDRHWC","English","0:22.1",1,0,0,0,0,0,0,0,1,0,0,0,0,0,1,0,1,0,1,0,0,0,0,1,86,"English",0,1,0,0,0,0,1,0,1,0,1,0,0,0,0,0,1,0,0,0,0,0,0,1,0,1,0,1,0,1,0,1,"English","one_play_two_responses","stimulus105_A","orderSI=121","orderAI=144","0:4.3","144;",1,0,"A","A",1
"132","X_PAUOGDRHWC","English","0:22.1",1,0,0,0,0,0,0,0,1,0,0,0,0,0,1,0,1,0,1,0,0,0,0,1,86,"English",0,1,0,0,0,0,1,0,1,0,1,0,0,0,0,0,1,0,0,0,0,0,0,1,0,1,0,1,0,1,0,1,"English","one_play_two_responses","stimulus104_A","orderSI=122","orderAI=145","0:3.8","145;",0,1,"B","A",0
"133","X_PAUOGDRHWC","English","0:22.1",1,0,0,0,0,0,0,0,1,0,0,0,0,0,1,0,1,0,1,0,0,0,0,1,86,"English",0,1,0,0,0,0,1,0,1,0,1,0,0,0,0,0,1,0,0,0,0,0,0,1,0,1,0,1,0,1,0,1,"English","one_play_two_responses","stimulus13_A","orderSI=149","orderAI=146","0:4.6","146;",1,0,"A","A",1
"134","X_PAUOGDRHWC","English","0:22.1",1,0,0,0,0,0,0,0,1,0,0,0,0,0,1,0,1,0,1,0,0,0,0,1,86,"English",0,1,0,0,0,0,1,0,1,0,1,0,0,0,0,0,1,0,0,0,0,0,0,1,0,1,0,1,0,1,0,1,"English","one_play_two_responses","stimulus98_B","orderSI=128","orderAI=147","0:3.6","147;",1,0,"A","B",0
"135","X_PAUOGDRHWC","English","0:22.1",1,0,0,0,0,0,0,0,1,0,0,0,0,0,1,0,1,0,1,0,0,0,0,1,86,"English",0,1,0,0,0,0,1,0,1,0,1,0,0,0,0,0,1,0,0,0,0,0,0,1,0,1,0,1,0,1,0,1,"English","one_play_two_responses","stimulus12_A","orderSI=150","orderAI=148","0:3.7","148;",0,1,"B","A",0
"136","X_PAUOGDRHWC","English","0:22.1",1,0,0,0,0,0,0,0,1,0,0,0,0,0,1,0,1,0,1,0,0,0,0,1,86,"English",0,1,0,0,0,0,1,0,1,0,1,0,0,0,0,0,1,0,0,0,0,0,0,1,0,1,0,1,0,1,0,1,"English","one_play_two_responses","stimulus110_B","orderSI=116","orderAI=149","0:3.4","149;",1,0,"A","B",0
"137","X_PAUOGDRHWC","English","0:22.1",1,0,0,0,0,0,0,0,1,0,0,0,0,0,1,0,1,0,1,0,0,0,0,1,86,"English",0,1,0,0,0,0,1,0,1,0,1,0,0,0,0,0,1,0,0,0,0,0,0,1,0,1,0,1,0,1,0,1,"English","one_play_two_responses","stimulus53_A","orderSI=141","orderAI=150","0:3.7","150;",0,1,"B","A",0
"138","X_PAUOGDRHWC","English","0:22.1",1,0,0,0,0,0,0,0,1,0,0,0,0,0,1,0,1,0,1,0,0,0,0,1,86,"English",0,1,0,0,0,0,1,0,1,0,1,0,0,0,0,0,1,0,0,0,0,0,0,1,0,1,0,1,0,1,0,1,"English","one_play_two_responses","stimulus97_A","orderSI=129","orderAI=151","0:3.5","151;",0,1,"B","A",0
"139","X_PAUOGDRHWC","English","0:22.1",1,0,0,0,0,0,0,0,1,0,0,0,0,0,1,0,1,0,1,0,0,0,0,1,86,"English",0,1,0,0,0,0,1,0,1,0,1,0,0,0,0,0,1,0,0,0,0,0,0,1,0,1,0,1,0,1,0,1,"English","one_play_two_responses","stimulus3_B","orderSI=159","orderAI=152","0:4.0","152;",1,0,"A","B",0
"140","X_PAUOGDRHWC","English","0:22.1",1,0,0,0,0,0,0,0,1,0,0,0,0,0,1,0,1,0,1,0,0,0,0,1,86,"English",0,1,0,0,0,0,1,0,1,0,1,0,0,0,0,0,1,0,0,0,0,0,0,1,0,1,0,1,0,1,0,1,"English","one_play_two_responses","stimulus51_B","orderSI=143","orderAI=153","0:3.6","153;",1,0,"A","B",0
"141","X_PAUOGDRHWC","English","0:22.1",1,0,0,0,0,0,0,0,1,0,0,0,0,0,1,0,1,0,1,0,0,0,0,1,86,"English",0,1,0,0,0,0,1,0,1,0,1,0,0,0,0,0,1,0,0,0,0,0,0,1,0,1,0,1,0,1,0,1,"English","one_play_two_responses","stimulus106_B","orderSI=120","orderAI=155","0:4.9","155;",1,0,"A","B",0
"142","X_PAUOGDRHWC","English","0:22.1",1,0,0,0,0,0,0,0,1,0,0,0,0,0,1,0,1,0,1,0,0,0,0,1,86,"English",0,1,0,0,0,0,1,0,1,0,1,0,0,0,0,0,1,0,0,0,0,0,0,1,0,1,0,1,0,1,0,1,"English","one_play_two_responses","stimulus15_B","orderSI=147","orderAI=156","0:3.9","156;",1,0,"A","B",0
"143","X_PAUOGDRHWC","English","0:22.1",1,0,0,0,0,0,0,0,1,0,0,0,0,0,1,0,1,0,1,0,0,0,0,1,86,"English",0,1,0,0,0,0,1,0,1,0,1,0,0,0,0,0,1,0,0,0,0,0,0,1,0,1,0,1,0,1,0,1,"English","one_play_two_responses","stimulus1_A","orderSI=161","orderAI=157","0:4.4","157;",0,1,"B","A",0
"144","X_PAUOGDRHWC","English","0:22.1",1,0,0,0,0,0,0,0,1,0,0,0,0,0,1,0,1,0,1,0,0,0,0,1,86,"English",0,1,0,0,0,0,1,0,1,0,1,0,0,0,0,0,1,0,0,0,0,0,0,1,0,1,0,1,0,1,0,1,"English","one_play_two_responses","stimulus58_B","orderSI=136","orderAI=158","0:3.8","158;",1,0,"A","B",0
"145","X_PAUOGDRHWC","English","0:22.1",1,0,0,0,0,0,0,0,1,0,0,0,0,0,1,0,1,0,1,0,0,0,0,1,86,"English",0,1,0,0,0,0,1,0,1,0,1,0,0,0,0,0,1,0,0,0,0,0,0,1,0,1,0,1,0,1,0,1,"English","one_play_two_responses","stimulus7_B","orderSI=155","orderAI=159","0:4.1","159;",0,1,"B","B",1
"146","X_PAUOGDRHWC","English","0:22.1",1,0,0,0,0,0,0,0,1,0,0,0,0,0,1,0,1,0,1,0,0,0,0,1,86,"English",0,1,0,0,0,0,1,0,1,0,1,0,0,0,0,0,1,0,0,0,0,0,0,1,0,1,0,1,0,1,0,1,"English","one_play_two_responses","stimulus103_B","orderSI=123","orderAI=160","0:3.0","160;",1,0,"A","B",0
"147","X_PAUOGDRHWC","English","0:22.1",1,0,0,0,0,0,0,0,1,0,0,0,0,0,1,0,1,0,1,0,0,0,0,1,86,"English",0,1,0,0,0,0,1,0,1,0,1,0,0,0,0,0,1,0,0,0,0,0,0,1,0,1,0,1,0,1,0,1,"English","one_play_two_responses","stimulus107_B","orderSI=119","orderAI=161","0:4.0","161;",1,0,"A","B",0
"148","X_PAUOGDRHWC","English","0:22.1",1,0,0,0,0,0,0,0,1,0,0,0,0,0,1,0,1,0,1,0,0,0,0,1,86,"English",0,1,0,0,0,0,1,0,1,0,1,0,0,0,0,0,1,0,0,0,0,0,0,1,0,1,0,1,0,1,0,1,"English","one_play_two_responses","stimulus111_B","orderSI=115","orderAI=162","0:4.0","162;",1,0,"A","B",0
"149","X_WBDYKIXFME","English","0:38.8",1,0,0,0,0,0,0,0,0,1,0,0,0,0,1,0,1,0,1,0,0,0,0,1,93,"English",0,0,0,0,1,0,0,1,0,1,0,0,0,0,0,1,0,0,0,0,0,1,0,1,0,1,0,1,0,1,0,1,"English","prot_catch_trial","stimulus49_A","orderSI=8","orderAI=8","0:36.2","8;",0,1,"B","A",0
"150","X_WBDYKIXFME","English","0:38.8",1,0,0,0,0,0,0,0,0,1,0,0,0,0,1,0,1,0,1,0,0,0,0,1,93,"English",0,0,0,0,1,0,0,1,0,1,0,0,0,0,0,1,0,0,0,0,0,1,0,1,0,1,0,1,0,1,0,1,"English","prot_catch_trial","stimulus50_B","orderSI=9","orderAI=9","0:10.7","9;",1,0,"A","B",0
"151","X_WBDYKIXFME","English","0:38.8",1,0,0,0,0,0,0,0,0,1,0,0,0,0,1,0,1,0,1,0,0,0,0,1,93,"English",0,0,0,0,1,0,0,1,0,1,0,0,0,0,0,1,0,0,0,0,0,1,0,1,0,1,0,1,0,1,0,1,"English","prot_catch_trial","stimulus100_A","orderSI=10","orderAI=10","0:13.9","10;",0,1,"B","A",0
"152","X_WBDYKIXFME","English","0:38.8",1,0,0,0,0,0,0,0,0,1,0,0,0,0,1,0,1,0,1,0,0,0,0,1,93,"English",0,0,0,0,1,0,0,1,0,1,0,0,0,0,0,1,0,0,0,0,0,1,0,1,0,1,0,1,0,1,0,1,"English","prot_catch_trial","stimulus104_A","orderSI=11","orderAI=11","0:5.3","11;",1,0,"A","A",1
"153","X_WBDYKIXFME","English","0:38.8",1,0,0,0,0,0,0,0,0,1,0,0,0,0,1,0,1,0,1,0,0,0,0,1,93,"English",0,0,0,0,1,0,0,1,0,1,0,0,0,0,0,1,0,0,0,0,0,1,0,1,0,1,0,1,0,1,0,1,"English","one_play_two_responses","stimulus144_A","orderSI=14","orderAI=14","0:7.9","14;",0,1,"B","A",0
"154","X_WBDYKIXFME","English","0:38.8",1,0,0,0,0,0,0,0,0,1,0,0,0,0,1,0,1,0,1,0,0,0,0,1,93,"English",0,0,0,0,1,0,0,1,0,1,0,0,0,0,0,1,0,0,0,0,0,1,0,1,0,1,0,1,0,1,0,1,"English","one_play_two_responses","stimulus133_A","orderSI=25","orderAI=15","0:4.6","15;",0,1,"B","A",0
"155","X_WBDYKIXFME","English","0:38.8",1,0,0,0,0,0,0,0,0,1,0,0,0,0,1,0,1,0,1,0,0,0,0,1,93,"English",0,0,0,0,1,0,0,1,0,1,0,0,0,0,0,1,0,0,0,0,0,1,0,1,0,1,0,1,0,1,0,1,"English","one_play_two_responses","stimulus47_B","orderSI=47","orderAI=16","0:8.8","16;",1,0,"A","B",0
"156","X_WBDYKIXFME","English","0:38.8",1,0,0,0,0,0,0,0,0,1,0,0,0,0,1,0,1,0,1,0,0,0,0,1,93,"English",0,0,0,0,1,0,0,1,0,1,0,0,0,0,0,1,0,0,0,0,0,1,0,1,0,1,0,1,0,1,0,1,"English","one_play_two_responses","stimulus136_A","orderSI=22","orderAI=17","0:5.9","17;",0,1,"B","A",0
"157","X_WBDYKIXFME","English","0:38.8",1,0,0,0,0,0,0,0,0,1,0,0,0,0,1,0,1,0,1,0,0,0,0,1,93,"English",0,0,0,0,1,0,0,1,0,1,0,0,0,0,0,1,0,0,0,0,0,1,0,1,0,1,0,1,0,1,0,1,"English","one_play_two_responses","stimulus135_B","orderSI=23","orderAI=18","0:8.2","18;",0,1,"B","B",1
"158","X_WBDYKIXFME","English","0:38.8",1,0,0,0,0,0,0,0,0,1,0,0,0,0,1,0,1,0,1,0,0,0,0,1,93,"English",0,0,0,0,1,0,0,1,0,1,0,0,0,0,0,1,0,0,0,0,0,1,0,1,0,1,0,1,0,1,0,1,"English","one_play_two_responses","stimulus39_B","orderSI=55","orderAI=19","0:9.2","19;",0,1,"B","B",1
"159","X_WBDYKIXFME","English","0:38.8",1,0,0,0,0,0,0,0,0,1,0,0,0,0,1,0,1,0,1,0,0,0,0,1,93,"English",0,0,0,0,1,0,0,1,0,1,0,0,0,0,0,1,0,0,0,0,0,1,0,1,0,1,0,1,0,1,0,1,"English","one_play_two_responses","stimulus129_A","orderSI=29","orderAI=20","0:5.3","20;",0,1,"B","A",0
"160","X_WBDYKIXFME","English","0:38.8",1,0,0,0,0,0,0,0,0,1,0,0,0,0,1,0,1,0,1,0,0,0,0,1,93,"English",0,0,0,0,1,0,0,1,0,1,0,0,0,0,0,1,0,0,0,0,0,1,0,1,0,1,0,1,0,1,0,1,"English","one_play_two_responses","stimulus83_B","orderSI=43","orderAI=21","0:6.9","21;",0,1,"B","B",1
"161","X_WBDYKIXFME","English","0:38.8",1,0,0,0,0,0,0,0,0,1,0,0,0,0,1,0,1,0,1,0,0,0,0,1,93,"English",0,0,0,0,1,0,0,1,0,1,0,0,0,0,0,1,0,0,0,0,0,1,0,1,0,1,0,1,0,1,0,1,"English","one_play_two_responses","stimulus84_A","orderSI=42","orderAI=22","0:4.2","22;",0,1,"B","A",0
"162","X_WBDYKIXFME","English","0:38.8",1,0,0,0,0,0,0,0,0,1,0,0,0,0,1,0,1,0,1,0,0,0,0,1,93,"English",0,0,0,0,1,0,0,1,0,1,0,0,0,0,0,1,0,0,0,0,0,1,0,1,0,1,0,1,0,1,0,1,"English","one_play_two_responses","stimulus43_B","orderSI=51","orderAI=23","0:5.5","23;",1,0,"A","B",0
"163","X_WBDYKIXFME","English","0:38.8",1,0,0,0,0,0,0,0,0,1,0,0,0,0,1,0,1,0,1,0,0,0,0,1,93,"English",0,0,0,0,1,0,0,1,0,1,0,0,0,0,0,1,0,0,0,0,0,1,0,1,0,1,0,1,0,1,0,1,"English","one_play_two_responses","stimulus42_B","orderSI=52","orderAI=24","0:10.3","24;",1,0,"A","B",0
"164","X_WBDYKIXFME","English","0:38.8",1,0,0,0,0,0,0,0,0,1,0,0,0,0,1,0,1,0,1,0,0,0,0,1,93,"English",0,0,0,0,1,0,0,1,0,1,0,0,0,0,0,1,0,0,0,0,0,1,0,1,0,1,0,1,0,1,0,1,"English","one_play_two_responses","stimulus131_B","orderSI=27","orderAI=25","0:6.9","25;",1,0,"A","B",0
"165","X_WBDYKIXFME","English","0:38.8",1,0,0,0,0,0,0,0,0,1,0,0,0,0,1,0,1,0,1,0,0,0,0,1,93,"English",0,0,0,0,1,0,0,1,0,1,0,0,0,0,0,1,0,0,0,0,0,1,0,1,0,1,0,1,0,1,0,1,"English","one_play_two_responses","stimulus89_A","orderSI=37","orderAI=26","0:5.1","26;",0,1,"B","A",0
"166","X_WBDYKIXFME","English","0:38.8",1,0,0,0,0,0,0,0,0,1,0,0,0,0,1,0,1,0,1,0,0,0,0,1,93,"English",0,0,0,0,1,0,0,1,0,1,0,0,0,0,0,1,0,0,0,0,0,1,0,1,0,1,0,1,0,1,0,1,"English","one_play_two_responses","stimulus87_B","orderSI=39","orderAI=27","0:6.8","27;",1,0,"A","B",0
"167","X_WBDYKIXFME","English","0:38.8",1,0,0,0,0,0,0,0,0,1,0,0,0,0,1,0,1,0,1,0,0,0,0,1,93,"English",0,0,0,0,1,0,0,1,0,1,0,0,0,0,0,1,0,0,0,0,0,1,0,1,0,1,0,1,0,1,0,1,"English","one_play_two_responses","stimulus95_B","orderSI=31","orderAI=28","0:5.5","28;",1,0,"A","B",0
"168","X_WBDYKIXFME","English","0:38.8",1,0,0,0,0,0,0,0,0,1,0,0,0,0,1,0,1,0,1,0,0,0,0,1,93,"English",0,0,0,0,1,0,0,1,0,1,0,0,0,0,0,1,0,0,0,0,0,1,0,1,0,1,0,1,0,1,0,1,"English","one_play_two_responses","stimulus93_A","orderSI=33","orderAI=29","0:7.9","29;",0,1,"B","A",0
"169","X_WBDYKIXFME","English","0:38.8",1,0,0,0,0,0,0,0,0,1,0,0,0,0,1,0,1,0,1,0,0,0,0,1,93,"English",0,0,0,0,1,0,0,1,0,1,0,0,0,0,0,1,0,0,0,0,0,1,0,1,0,1,0,1,0,1,0,1,"English","one_play_two_responses","stimulus88_A","orderSI=38","orderAI=30","0:4.3","30;",0,1,"B","A",0
"170","X_WBDYKIXFME","English","0:38.8",1,0,0,0,0,0,0,0,0,1,0,0,0,0,1,0,1,0,1,0,0,0,0,1,93,"English",0,0,0,0,1,0,0,1,0,1,0,0,0,0,0,1,0,0,0,0,0,1,0,1,0,1,0,1,0,1,0,1,"English","one_play_two_responses","stimulus94_B","orderSI=32","orderAI=31","0:7.0","31;",0,1,"B","B",1
"171","X_WBDYKIXFME","English","0:38.8",1,0,0,0,0,0,0,0,0,1,0,0,0,0,1,0,1,0,1,0,0,0,0,1,93,"English",0,0,0,0,1,0,0,1,0,1,0,0,0,0,0,1,0,0,0,0,0,1,0,1,0,1,0,1,0,1,0,1,"English","one_play_two_responses","stimulus140_A","orderSI=18","orderAI=32","0:4.3","32;",0,1,"B","A",0
"172","X_WBDYKIXFME","English","0:38.8",1,0,0,0,0,0,0,0,0,1,0,0,0,0,1,0,1,0,1,0,0,0,0,1,93,"English",0,0,0,0,1,0,0,1,0,1,0,0,0,0,0,1,0,0,0,0,0,1,0,1,0,1,0,1,0,1,0,1,"English","one_play_two_responses","stimulus86_B","orderSI=40","orderAI=33","0:4.7","33;",0,1,"B","B",1
"173","X_WBDYKIXFME","English","0:38.8",1,0,0,0,0,0,0,0,0,1,0,0,0,0,1,0,1,0,1,0,0,0,0,1,93,"English",0,0,0,0,1,0,0,1,0,1,0,0,0,0,0,1,0,0,0,0,0,1,0,1,0,1,0,1,0,1,0,1,"English","one_play_two_responses","stimulus33_A","orderSI=61","orderAI=34","0:4.5","34;",0,1,"B","A",0
"174","X_WBDYKIXFME","English","0:38.8",1,0,0,0,0,0,0,0,0,1,0,0,0,0,1,0,1,0,1,0,0,0,0,1,93,"English",0,0,0,0,1,0,0,1,0,1,0,0,0,0,0,1,0,0,0,0,0,1,0,1,0,1,0,1,0,1,0,1,"English","one_play_two_responses","stimulus137_A","orderSI=21","orderAI=35","0:4.2","35;",0,1,"B","A",0
"175","X_WBDYKIXFME","English","0:38.8",1,0,0,0,0,0,0,0,0,1,0,0,0,0,1,0,1,0,1,0,0,0,0,1,93,"English",0,0,0,0,1,0,0,1,0,1,0,0,0,0,0,1,0,0,0,0,0,1,0,1,0,1,0,1,0,1,0,1,"English","one_play_two_responses","stimulus44_A","orderSI=50","orderAI=36","0:6.8","36;",1,0,"A","A",1
"176","X_WBDYKIXFME","English","0:38.8",1,0,0,0,0,0,0,0,0,1,0,0,0,0,1,0,1,0,1,0,0,0,0,1,93,"English",0,0,0,0,1,0,0,1,0,1,0,0,0,0,0,1,0,0,0,0,0,1,0,1,0,1,0,1,0,1,0,1,"English","one_play_two_responses","stimulus81_A","orderSI=45","orderAI=37","0:4.7","37;",0,1,"B","A",0
"177","X_WBDYKIXFME","English","0:38.8",1,0,0,0,0,0,0,0,0,1,0,0,0,0,1,0,1,0,1,0,0,0,0,1,93,"English",0,0,0,0,1,0,0,1,0,1,0,0,0,0,0,1,0,0,0,0,0,1,0,1,0,1,0,1,0,1,0,1,"English","one_play_two_responses","stimulus38_B","orderSI=56","orderAI=39","0:7.7","39;",0,1,"B","B",1
"178","X_WBDYKIXFME","English","0:38.8",1,0,0,0,0,0,0,0,0,1,0,0,0,0,1,0,1,0,1,0,0,0,0,1,93,"English",0,0,0,0,1,0,0,1,0,1,0,0,0,0,0,1,0,0,0,0,0,1,0,1,0,1,0,1,0,1,0,1,"English","one_play_two_responses","stimulus85_A","orderSI=41","orderAI=40","0:3.9","40;",0,1,"B","A",0
"179","X_WBDYKIXFME","English","0:38.8",1,0,0,0,0,0,0,0,0,1,0,0,0,0,1,0,1,0,1,0,0,0,0,1,93,"English",0,0,0,0,1,0,0,1,0,1,0,0,0,0,0,1,0,0,0,0,0,1,0,1,0,1,0,1,0,1,0,1,"English","one_play_two_responses","stimulus132_A","orderSI=26","orderAI=41","0:6.3","41;",0,1,"B","A",0
"180","X_WBDYKIXFME","English","0:38.8",1,0,0,0,0,0,0,0,0,1,0,0,0,0,1,0,1,0,1,0,0,0,0,1,93,"English",0,0,0,0,1,0,0,1,0,1,0,0,0,0,0,1,0,0,0,0,0,1,0,1,0,1,0,1,0,1,0,1,"English","one_play_two_responses","stimulus142_B","orderSI=16","orderAI=42","0:5.5","42;",0,1,"B","B",1
"181","X_WBDYKIXFME","English","0:38.8",1,0,0,0,0,0,0,0,0,1,0,0,0,0,1,0,1,0,1,0,0,0,0,1,93,"English",0,0,0,0,1,0,0,1,0,1,0,0,0,0,0,1,0,0,0,0,0,1,0,1,0,1,0,1,0,1,0,1,"English","one_play_two_responses","stimulus134_B","orderSI=24","orderAI=43","0:5.2","43;",1,0,"A","B",0
"182","X_WBDYKIXFME","English","0:38.8",1,0,0,0,0,0,0,0,0,1,0,0,0,0,1,0,1,0,1,0,0,0,0,1,93,"English",0,0,0,0,1,0,0,1,0,1,0,0,0,0,0,1,0,0,0,0,0,1,0,1,0,1,0,1,0,1,0,1,"English","one_play_two_responses","stimulus40_A","orderSI=54","orderAI=44","0:4.6","44;",0,1,"B","A",0
"183","X_WBDYKIXFME","English","0:38.8",1,0,0,0,0,0,0,0,0,1,0,0,0,0,1,0,1,0,1,0,0,0,0,1,93,"English",0,0,0,0,1,0,0,1,0,1,0,0,0,0,0,1,0,0,0,0,0,1,0,1,0,1,0,1,0,1,0,1,"English","one_play_two_responses","stimulus82_B","orderSI=44","orderAI=45","0:5.2","45;",1,0,"A","B",0
"184","X_WBDYKIXFME","English","0:38.8",1,0,0,0,0,0,0,0,0,1,0,0,0,0,1,0,1,0,1,0,0,0,0,1,93,"English",0,0,0,0,1,0,0,1,0,1,0,0,0,0,0,1,0,0,0,0,0,1,0,1,0,1,0,1,0,1,0,1,"English","one_play_two_responses","stimulus92_A","orderSI=34","orderAI=46","0:4.3","46;",0,1,"B","A",0
"185","X_WBDYKIXFME","English","0:38.8",1,0,0,0,0,0,0,0,0,1,0,0,0,0,1,0,1,0,1,0,0,0,0,1,93,"English",0,0,0,0,1,0,0,1,0,1,0,0,0,0,0,1,0,0,0,0,0,1,0,1,0,1,0,1,0,1,0,1,"English","one_play_two_responses","stimulus45_A","orderSI=49","orderAI=47","0:4.4","47;",0,1,"B","A",0
"186","X_WBDYKIXFME","English","0:38.8",1,0,0,0,0,0,0,0,0,1,0,0,0,0,1,0,1,0,1,0,0,0,0,1,93,"English",0,0,0,0,1,0,0,1,0,1,0,0,0,0,0,1,0,0,0,0,0,1,0,1,0,1,0,1,0,1,0,1,"English","one_play_two_responses","stimulus34_B","orderSI=60","orderAI=48","0:5.4","48;",1,0,"A","B",0
"187","X_WBDYKIXFME","English","0:38.8",1,0,0,0,0,0,0,0,0,1,0,0,0,0,1,0,1,0,1,0,0,0,0,1,93,"English",0,0,0,0,1,0,0,1,0,1,0,0,0,0,0,1,0,0,0,0,0,1,0,1,0,1,0,1,0,1,0,1,"English","one_play_two_responses","stimulus130_B","orderSI=28","orderAI=49","0:6.7","49;",0,1,"B","B",1
"188","X_WBDYKIXFME","English","0:38.8",1,0,0,0,0,0,0,0,0,1,0,0,0,0,1,0,1,0,1,0,0,0,0,1,93,"English",0,0,0,0,1,0,0,1,0,1,0,0,0,0,0,1,0,0,0,0,0,1,0,1,0,1,0,1,0,1,0,1,"English","one_play_two_responses","stimulus141_A","orderSI=17","orderAI=50","0:5.0","50;",0,1,"B","A",0
"189","X_WBDYKIXFME","English","0:38.8",1,0,0,0,0,0,0,0,0,1,0,0,0,0,1,0,1,0,1,0,0,0,0,1,93,"English",0,0,0,0,1,0,0,1,0,1,0,0,0,0,0,1,0,0,0,0,0,1,0,1,0,1,0,1,0,1,0,1,"English","one_play_two_responses","stimulus143_B","orderSI=15","orderAI=51","0:5.0","51;",1,0,"A","B",0
"190","X_WBDYKIXFME","English","0:38.8",1,0,0,0,0,0,0,0,0,1,0,0,0,0,1,0,1,0,1,0,0,0,0,1,93,"English",0,0,0,0,1,0,0,1,0,1,0,0,0,0,0,1,0,0,0,0,0,1,0,1,0,1,0,1,0,1,0,1,"English","one_play_two_responses","stimulus36_A","orderSI=58","orderAI=52","0:4.6","52;",0,1,"B","A",0
"191","X_WBDYKIXFME","English","0:38.8",1,0,0,0,0,0,0,0,0,1,0,0,0,0,1,0,1,0,1,0,0,0,0,1,93,"English",0,0,0,0,1,0,0,1,0,1,0,0,0,0,0,1,0,0,0,0,0,1,0,1,0,1,0,1,0,1,0,1,"English","one_play_two_responses","stimulus96_A","orderSI=30","orderAI=53","0:4.1","53;",0,1,"B","A",0
"192","X_WBDYKIXFME","English","0:38.8",1,0,0,0,0,0,0,0,0,1,0,0,0,0,1,0,1,0,1,0,0,0,0,1,93,"English",0,0,0,0,1,0,0,1,0,1,0,0,0,0,0,1,0,0,0,0,0,1,0,1,0,1,0,1,0,1,0,1,"English","one_play_two_responses","stimulus37_A","orderSI=57","orderAI=54","0:4.0","54;",0,1,"B","A",0
"193","X_WBDYKIXFME","English","0:38.8",1,0,0,0,0,0,0,0,0,1,0,0,0,0,1,0,1,0,1,0,0,0,0,1,93,"English",0,0,0,0,1,0,0,1,0,1,0,0,0,0,0,1,0,0,0,0,0,1,0,1,0,1,0,1,0,1,0,1,"English","one_play_two_responses","stimulus91_B","orderSI=35","orderAI=55","0:7.5","55;",1,0,"A","B",0
"194","X_WBDYKIXFME","English","0:38.8",1,0,0,0,0,0,0,0,0,1,0,0,0,0,1,0,1,0,1,0,0,0,0,1,93,"English",0,0,0,0,1,0,0,1,0,1,0,0,0,0,0,1,0,0,0,0,0,1,0,1,0,1,0,1,0,1,0,1,"English","one_play_two_responses","stimulus41_A","orderSI=53","orderAI=56","0:5.1","56;",0,1,"B","A",0
"195","X_WBDYKIXFME","English","0:38.8",1,0,0,0,0,0,0,0,0,1,0,0,0,0,1,0,1,0,1,0,0,0,0,1,93,"English",0,0,0,0,1,0,0,1,0,1,0,0,0,0,0,1,0,0,0,0,0,1,0,1,0,1,0,1,0,1,0,1,"English","one_play_two_responses","stimulus139_B","orderSI=19","orderAI=57","0:5.8","57;",0,1,"B","B",1
"196","X_WBDYKIXFME","English","0:38.8",1,0,0,0,0,0,0,0,0,1,0,0,0,0,1,0,1,0,1,0,0,0,0,1,93,"English",0,0,0,0,1,0,0,1,0,1,0,0,0,0,0,1,0,0,0,0,0,1,0,1,0,1,0,1,0,1,0,1,"English","one_play_two_responses","stimulus48_A","orderSI=46","orderAI=58","0:4.3","58;",0,1,"B","A",0
"197","X_WBDYKIXFME","English","0:38.8",1,0,0,0,0,0,0,0,0,1,0,0,0,0,1,0,1,0,1,0,0,0,0,1,93,"English",0,0,0,0,1,0,0,1,0,1,0,0,0,0,0,1,0,0,0,0,0,1,0,1,0,1,0,1,0,1,0,1,"English","one_play_two_responses","stimulus46_B","orderSI=48","orderAI=59","0:7.2","59;",0,1,"B","B",1
"198","X_WBDYKIXFME","English","0:38.8",1,0,0,0,0,0,0,0,0,1,0,0,0,0,1,0,1,0,1,0,0,0,0,1,93,"English",0,0,0,0,1,0,0,1,0,1,0,0,0,0,0,1,0,0,0,0,0,1,0,1,0,1,0,1,0,1,0,1,"English","one_play_two_responses","stimulus90_B","orderSI=36","orderAI=60","0:6.5","60;",0,1,"B","B",1
"199","X_WBDYKIXFME","English","0:38.8",1,0,0,0,0,0,0,0,0,1,0,0,0,0,1,0,1,0,1,0,0,0,0,1,93,"English",0,0,0,0,1,0,0,1,0,1,0,0,0,0,0,1,0,0,0,0,0,1,0,1,0,1,0,1,0,1,0,1,"English","one_play_two_responses","stimulus138_B","orderSI=20","orderAI=61","0:5.3","61;",0,1,"B","B",1
"200","X_WBDYKIXFME","English","0:38.8",1,0,0,0,0,0,0,0,0,1,0,0,0,0,1,0,1,0,1,0,0,0,0,1,93,"English",0,0,0,0,1,0,0,1,0,1,0,0,0,0,0,1,0,0,0,0,0,1,0,1,0,1,0,1,0,1,0,1,"English","one_play_two_responses","stimulus35_B","orderSI=59","orderAI=62","0:6.3","62;",1,0,"A","B",0
"201","X_WBDYKIXFME","English","0:38.8",1,0,0,0,0,0,0,0,0,1,0,0,0,0,1,0,1,0,1,0,0,0,0,1,93,"English",0,0,0,0,1,0,0,1,0,1,0,0,0,0,0,1,0,0,0,0,0,1,0,1,0,1,0,1,0,1,0,1,"English","one_play_two_responses","stimulus71_B","orderSI=89","orderAI=64","0:14.2","64;",1,0,"A","B",0
"202","X_WBDYKIXFME","English","0:38.8",1,0,0,0,0,0,0,0,0,1,0,0,0,0,1,0,1,0,1,0,0,0,0,1,93,"English",0,0,0,0,1,0,0,1,0,1,0,0,0,0,0,1,0,0,0,0,0,1,0,1,0,1,0,1,0,1,0,1,"English","one_play_two_responses","stimulus113_A","orderSI=79","orderAI=65","0:4.9","65;",0,1,"B","A",0
"203","X_WBDYKIXFME","English","0:38.8",1,0,0,0,0,0,0,0,0,1,0,0,0,0,1,0,1,0,1,0,0,0,0,1,93,"English",0,0,0,0,1,0,0,1,0,1,0,0,0,0,0,1,0,0,0,0,0,1,0,1,0,1,0,1,0,1,0,1,"English","one_play_two_responses","stimulus120_A","orderSI=72","orderAI=66","0:4.1","66;",0,1,"B","A",0
"204","X_WBDYKIXFME","English","0:38.8",1,0,0,0,0,0,0,0,0,1,0,0,0,0,1,0,1,0,1,0,0,0,0,1,93,"English",0,0,0,0,1,0,0,1,0,1,0,0,0,0,0,1,0,0,0,0,0,1,0,1,0,1,0,1,0,1,0,1,"English","one_play_two_responses","stimulus70_B","orderSI=90","orderAI=67","0:6.9","67;",1,0,"A","B",0
"205","X_WBDYKIXFME","English","0:38.8",1,0,0,0,0,0,0,0,0,1,0,0,0,0,1,0,1,0,1,0,0,0,0,1,93,"English",0,0,0,0,1,0,0,1,0,1,0,0,0,0,0,1,0,0,0,0,0,1,0,1,0,1,0,1,0,1,0,1,"English","one_play_two_responses","stimulus26_B","orderSI=102","orderAI=68","0:8.2","68;",1,0,"A","B",0
"206","X_WBDYKIXFME","English","0:38.8",1,0,0,0,0,0,0,0,0,1,0,0,0,0,1,0,1,0,1,0,0,0,0,1,93,"English",0,0,0,0,1,0,0,1,0,1,0,0,0,0,0,1,0,0,0,0,0,1,0,1,0,1,0,1,0,1,0,1,"English","one_play_two_responses","stimulus28_A","orderSI=100","orderAI=69","0:4.2","69;",0,1,"B","A",0
"207","X_WBDYKIXFME","English","0:38.8",1,0,0,0,0,0,0,0,0,1,0,0,0,0,1,0,1,0,1,0,0,0,0,1,93,"English",0,0,0,0,1,0,0,1,0,1,0,0,0,0,0,1,0,0,0,0,0,1,0,1,0,1,0,1,0,1,0,1,"English","one_play_two_responses","stimulus79_B","orderSI=81","orderAI=70","0:6.9","70;",1,0,"A","B",0
"208","X_WBDYKIXFME","English","0:38.8",1,0,0,0,0,0,0,0,0,1,0,0,0,0,1,0,1,0,1,0,0,0,0,1,93,"English",0,0,0,0,1,0,0,1,0,1,0,0,0,0,0,1,0,0,0,0,0,1,0,1,0,1,0,1,0,1,0,1,"English","one_play_two_responses","stimulus29_A","orderSI=99","orderAI=71","0:5.2","71;",1,0,"A","A",1
"209","X_WBDYKIXFME","English","0:38.8",1,0,0,0,0,0,0,0,0,1,0,0,0,0,1,0,1,0,1,0,0,0,0,1,93,"English",0,0,0,0,1,0,0,1,0,1,0,0,0,0,0,1,0,0,0,0,0,1,0,1,0,1,0,1,0,1,0,1,"English","one_play_two_responses","stimulus77_A","orderSI=83","orderAI=72","0:5.9","72;",1,0,"A","A",1
"210","X_WBDYKIXFME","English","0:38.8",1,0,0,0,0,0,0,0,0,1,0,0,0,0,1,0,1,0,1,0,0,0,0,1,93,"English",0,0,0,0,1,0,0,1,0,1,0,0,0,0,0,1,0,0,0,0,0,1,0,1,0,1,0,1,0,1,0,1,"English","one_play_two_responses","stimulus75_B","orderSI=85","orderAI=73","0:4.8","73;",1,0,"A","B",0
"211","X_WBDYKIXFME","English","0:38.8",1,0,0,0,0,0,0,0,0,1,0,0,0,0,1,0,1,0,1,0,0,0,0,1,93,"English",0,0,0,0,1,0,0,1,0,1,0,0,0,0,0,1,0,0,0,0,0,1,0,1,0,1,0,1,0,1,0,1,"English","one_play_two_responses","stimulus66_B","orderSI=94","orderAI=74","0:6.0","74;",1,0,"A","B",0
"212","X_WBDYKIXFME","English","0:38.8",1,0,0,0,0,0,0,0,0,1,0,0,0,0,1,0,1,0,1,0,0,0,0,1,93,"English",0,0,0,0,1,0,0,1,0,1,0,0,0,0,0,1,0,0,0,0,0,1,0,1,0,1,0,1,0,1,0,1,"English","one_play_two_responses","stimulus17_A","orderSI=111","orderAI=75","0:4.3","75;",0,1,"B","A",0
"213","X_WBDYKIXFME","English","0:38.8",1,0,0,0,0,0,0,0,0,1,0,0,0,0,1,0,1,0,1,0,0,0,0,1,93,"English",0,0,0,0,1,0,0,1,0,1,0,0,0,0,0,1,0,0,0,0,0,1,0,1,0,1,0,1,0,1,0,1,"English","one_play_two_responses","stimulus67_B","orderSI=93","orderAI=76","0:4.7","76;",1,0,"A","B",0
"214","X_WBDYKIXFME","English","0:38.8",1,0,0,0,0,0,0,0,0,1,0,0,0,0,1,0,1,0,1,0,0,0,0,1,93,"English",0,0,0,0,1,0,0,1,0,1,0,0,0,0,0,1,0,0,0,0,0,1,0,1,0,1,0,1,0,1,0,1,"English","one_play_two_responses","stimulus18_B","orderSI=110","orderAI=77","0:5.8","77;",1,0,"A","B",0
"215","X_WBDYKIXFME","English","0:38.8",1,0,0,0,0,0,0,0,0,1,0,0,0,0,1,0,1,0,1,0,0,0,0,1,93,"English",0,0,0,0,1,0,0,1,0,1,0,0,0,0,0,1,0,0,0,0,0,1,0,1,0,1,0,1,0,1,0,1,"English","one_play_two_responses","stimulus125_A","orderSI=67","orderAI=78","0:5.2","78;",0,1,"B","A",0
"216","X_WBDYKIXFME","English","0:38.8",1,0,0,0,0,0,0,0,0,1,0,0,0,0,1,0,1,0,1,0,0,0,0,1,93,"English",0,0,0,0,1,0,0,1,0,1,0,0,0,0,0,1,0,0,0,0,0,1,0,1,0,1,0,1,0,1,0,1,"English","one_play_two_responses","stimulus21_A","orderSI=107","orderAI=79","0:7.7","79;",0,1,"B","A",0
"217","X_WBDYKIXFME","English","0:38.8",1,0,0,0,0,0,0,0,0,1,0,0,0,0,1,0,1,0,1,0,0,0,0,1,93,"English",0,0,0,0,1,0,0,1,0,1,0,0,0,0,0,1,0,0,0,0,0,1,0,1,0,1,0,1,0,1,0,1,"English","one_play_two_responses","stimulus69_A","orderSI=91","orderAI=80","0:4.1","80;",0,1,"B","A",0
"218","X_WBDYKIXFME","English","0:38.8",1,0,0,0,0,0,0,0,0,1,0,0,0,0,1,0,1,0,1,0,0,0,0,1,93,"English",0,0,0,0,1,0,0,1,0,1,0,0,0,0,0,1,0,0,0,0,0,1,0,1,0,1,0,1,0,1,0,1,"English","one_play_two_responses","stimulus118_B","orderSI=74","orderAI=81","0:6.0","81;",0,1,"B","B",1
"219","X_WBDYKIXFME","English","0:38.8",1,0,0,0,0,0,0,0,0,1,0,0,0,0,1,0,1,0,1,0,0,0,0,1,93,"English",0,0,0,0,1,0,0,1,0,1,0,0,0,0,0,1,0,0,0,0,0,1,0,1,0,1,0,1,0,1,0,1,"English","one_play_two_responses","stimulus128_A","orderSI=64","orderAI=82","0:6.2","82;",0,1,"B","A",0
"220","X_WBDYKIXFME","English","0:38.8",1,0,0,0,0,0,0,0,0,1,0,0,0,0,1,0,1,0,1,0,0,0,0,1,93,"English",0,0,0,0,1,0,0,1,0,1,0,0,0,0,0,1,0,0,0,0,0,1,0,1,0,1,0,1,0,1,0,1,"English","one_play_two_responses","stimulus65_A","orderSI=95","orderAI=83","0:8.0","83;",0,1,"B","A",0
"221","X_WBDYKIXFME","English","0:38.8",1,0,0,0,0,0,0,0,0,1,0,0,0,0,1,0,1,0,1,0,0,0,0,1,93,"English",0,0,0,0,1,0,0,1,0,1,0,0,0,0,0,1,0,0,0,0,0,1,0,1,0,1,0,1,0,1,0,1,"English","one_play_two_responses","stimulus74_B","orderSI=86","orderAI=84","0:7.1","84;",0,1,"B","B",1
"222","X_WBDYKIXFME","English","0:38.8",1,0,0,0,0,0,0,0,0,1,0,0,0,0,1,0,1,0,1,0,0,0,0,1,93,"English",0,0,0,0,1,0,0,1,0,1,0,0,0,0,0,1,0,0,0,0,0,1,0,1,0,1,0,1,0,1,0,1,"English","one_play_two_responses","stimulus127_B","orderSI=65","orderAI=85","0:5.5","85;",1,0,"A","B",0
"223","X_WBDYKIXFME","English","0:38.8",1,0,0,0,0,0,0,0,0,1,0,0,0,0,1,0,1,0,1,0,0,0,0,1,93,"English",0,0,0,0,1,0,0,1,0,1,0,0,0,0,0,1,0,0,0,0,0,1,0,1,0,1,0,1,0,1,0,1,"English","one_play_two_responses","stimulus20_A","orderSI=108","orderAI=86","0:4.5","86;",0,1,"B","A",0
"224","X_WBDYKIXFME","English","0:38.8",1,0,0,0,0,0,0,0,0,1,0,0,0,0,1,0,1,0,1,0,0,0,0,1,93,"English",0,0,0,0,1,0,0,1,0,1,0,0,0,0,0,1,0,0,0,0,0,1,0,1,0,1,0,1,0,1,0,1,"English","one_play_two_responses","stimulus24_A","orderSI=104","orderAI=87","0:4.8","87;",0,1,"B","A",0
"225","X_WBDYKIXFME","English","0:38.8",1,0,0,0,0,0,0,0,0,1,0,0,0,0,1,0,1,0,1,0,0,0,0,1,93,"English",0,0,0,0,1,0,0,1,0,1,0,0,0,0,0,1,0,0,0,0,0,1,0,1,0,1,0,1,0,1,0,1,"English","one_play_two_responses","stimulus72_A","orderSI=88","orderAI=88","0:3.8","88;",0,1,"B","A",0
"226","X_WBDYKIXFME","English","0:38.8",1,0,0,0,0,0,0,0,0,1,0,0,0,0,1,0,1,0,1,0,0,0,0,1,93,"English",0,0,0,0,1,0,0,1,0,1,0,0,0,0,0,1,0,0,0,0,0,1,0,1,0,1,0,1,0,1,0,1,"English","one_play_two_responses","stimulus32_A","orderSI=96","orderAI=89","0:4.4","89;",0,1,"B","A",0
"227","X_WBDYKIXFME","English","0:38.8",1,0,0,0,0,0,0,0,0,1,0,0,0,0,1,0,1,0,1,0,0,0,0,1,93,"English",0,0,0,0,1,0,0,1,0,1,0,0,0,0,0,1,0,0,0,0,0,1,0,1,0,1,0,1,0,1,0,1,"English","one_play_two_responses","stimulus19_B","orderSI=109","orderAI=90","0:5.3","90;",1,0,"A","B",0
"228","X_WBDYKIXFME","English","0:38.8",1,0,0,0,0,0,0,0,0,1,0,0,0,0,1,0,1,0,1,0,0,0,0,1,93,"English",0,0,0,0,1,0,0,1,0,1,0,0,0,0,0,1,0,0,0,0,0,1,0,1,0,1,0,1,0,1,0,1,"English","one_play_two_responses","stimulus117_A","orderSI=75","orderAI=91","0:5.1","91;",0,1,"B","A",0
"229","X_WBDYKIXFME","English","0:38.8",1,0,0,0,0,0,0,0,0,1,0,0,0,0,1,0,1,0,1,0,0,0,0,1,93,"English",0,0,0,0,1,0,0,1,0,1,0,0,0,0,0,1,0,0,0,0,0,1,0,1,0,1,0,1,0,1,0,1,"English","one_play_two_responses","stimulus116_A","orderSI=76","orderAI=92","0:4.3","92;",0,1,"B","A",0
"230","X_WBDYKIXFME","English","0:38.8",1,0,0,0,0,0,0,0,0,1,0,0,0,0,1,0,1,0,1,0,0,0,0,1,93,"English",0,0,0,0,1,0,0,1,0,1,0,0,0,0,0,1,0,0,0,0,0,1,0,1,0,1,0,1,0,1,0,1,"English","one_play_two_responses","stimulus115_B","orderSI=77","orderAI=93","0:4.9","93;",0,1,"B","B",1
"231","X_WBDYKIXFME","English","0:38.8",1,0,0,0,0,0,0,0,0,1,0,0,0,0,1,0,1,0,1,0,0,0,0,1,93,"English",0,0,0,0,1,0,0,1,0,1,0,0,0,0,0,1,0,0,0,0,0,1,0,1,0,1,0,1,0,1,0,1,"English","one_play_two_responses","stimulus80_A","orderSI=80","orderAI=94","0:5.5","94;",0,1,"B","A",0
"232","X_WBDYKIXFME","English","0:38.8",1,0,0,0,0,0,0,0,0,1,0,0,0,0,1,0,1,0,1,0,0,0,0,1,93,"English",0,0,0,0,1,0,0,1,0,1,0,0,0,0,0,1,0,0,0,0,0,1,0,1,0,1,0,1,0,1,0,1,"English","one_play_two_responses","stimulus31_B","orderSI=97","orderAI=95","0:6.8","95;",0,1,"B","B",1
"233","X_WBDYKIXFME","English","0:38.8",1,0,0,0,0,0,0,0,0,1,0,0,0,0,1,0,1,0,1,0,0,0,0,1,93,"English",0,0,0,0,1,0,0,1,0,1,0,0,0,0,0,1,0,0,0,0,0,1,0,1,0,1,0,1,0,1,0,1,"English","one_play_two_responses","stimulus22_B","orderSI=106","orderAI=97","0:5.7","97;",1,0,"A","B",0
"234","X_WBDYKIXFME","English","0:38.8",1,0,0,0,0,0,0,0,0,1,0,0,0,0,1,0,1,0,1,0,0,0,0,1,93,"English",0,0,0,0,1,0,0,1,0,1,0,0,0,0,0,1,0,0,0,0,0,1,0,1,0,1,0,1,0,1,0,1,"English","one_play_two_responses","stimulus122_B","orderSI=70","orderAI=98","0:7.1","98;",1,0,"A","B",0
"235","X_WBDYKIXFME","English","0:38.8",1,0,0,0,0,0,0,0,0,1,0,0,0,0,1,0,1,0,1,0,0,0,0,1,93,"English",0,0,0,0,1,0,0,1,0,1,0,0,0,0,0,1,0,0,0,0,0,1,0,1,0,1,0,1,0,1,0,1,"English","one_play_two_responses","stimulus73_A","orderSI=87","orderAI=99","0:4.3","99;",0,1,"B","A",0
"236","X_WBDYKIXFME","English","0:38.8",1,0,0,0,0,0,0,0,0,1,0,0,0,0,1,0,1,0,1,0,0,0,0,1,93,"English",0,0,0,0,1,0,0,1,0,1,0,0,0,0,0,1,0,0,0,0,0,1,0,1,0,1,0,1,0,1,0,1,"English","one_play_two_responses","stimulus68_A","orderSI=92","orderAI=100","0:3.9","100;",0,1,"B","A",0
"237","X_WBDYKIXFME","English","0:38.8",1,0,0,0,0,0,0,0,0,1,0,0,0,0,1,0,1,0,1,0,0,0,0,1,93,"English",0,0,0,0,1,0,0,1,0,1,0,0,0,0,0,1,0,0,0,0,0,1,0,1,0,1,0,1,0,1,0,1,"English","one_play_two_responses","stimulus119_B","orderSI=73","orderAI=101","0:4.7","101;",1,0,"A","B",0
"238","X_WBDYKIXFME","English","0:38.8",1,0,0,0,0,0,0,0,0,1,0,0,0,0,1,0,1,0,1,0,0,0,0,1,93,"English",0,0,0,0,1,0,0,1,0,1,0,0,0,0,0,1,0,0,0,0,0,1,0,1,0,1,0,1,0,1,0,1,"English","one_play_two_responses","stimulus78_B","orderSI=82","orderAI=102","0:7.2","102;",1,0,"A","B",0
"239","X_WBDYKIXFME","English","0:38.8",1,0,0,0,0,0,0,0,0,1,0,0,0,0,1,0,1,0,1,0,0,0,0,1,93,"English",0,0,0,0,1,0,0,1,0,1,0,0,0,0,0,1,0,0,0,0,0,1,0,1,0,1,0,1,0,1,0,1,"English","one_play_two_responses","stimulus25_A","orderSI=103","orderAI=103","0:4.8","103;",0,1,"B","A",0
"240","X_WBDYKIXFME","English","0:38.8",1,0,0,0,0,0,0,0,0,1,0,0,0,0,1,0,1,0,1,0,0,0,0,1,93,"English",0,0,0,0,1,0,0,1,0,1,0,0,0,0,0,1,0,0,0,0,0,1,0,1,0,1,0,1,0,1,0,1,"English","one_play_two_responses","stimulus126_B","orderSI=66","orderAI=104","0:4.7","104;",1,0,"A","B",0
"241","X_WBDYKIXFME","English","0:38.8",1,0,0,0,0,0,0,0,0,1,0,0,0,0,1,0,1,0,1,0,0,0,0,1,93,"English",0,0,0,0,1,0,0,1,0,1,0,0,0,0,0,1,0,0,0,0,0,1,0,1,0,1,0,1,0,1,0,1,"English","one_play_two_responses","stimulus123_B","orderSI=69","orderAI=105","0:4.9","105;",0,1,"B","B",1
"242","X_WBDYKIXFME","English","0:38.8",1,0,0,0,0,0,0,0,0,1,0,0,0,0,1,0,1,0,1,0,0,0,0,1,93,"English",0,0,0,0,1,0,0,1,0,1,0,0,0,0,0,1,0,0,0,0,0,1,0,1,0,1,0,1,0,1,0,1,"English","one_play_two_responses","stimulus30_B","orderSI=98","orderAI=106","0:6.5","106;",1,0,"A","B",0
"243","X_WBDYKIXFME","English","0:38.8",1,0,0,0,0,0,0,0,0,1,0,0,0,0,1,0,1,0,1,0,0,0,0,1,93,"English",0,0,0,0,1,0,0,1,0,1,0,0,0,0,0,1,0,0,0,0,0,1,0,1,0,1,0,1,0,1,0,1,"English","one_play_two_responses","stimulus124_A","orderSI=68","orderAI=107","0:4.9","107;",0,1,"B","A",0
"244","X_WBDYKIXFME","English","0:38.8",1,0,0,0,0,0,0,0,0,1,0,0,0,0,1,0,1,0,1,0,0,0,0,1,93,"English",0,0,0,0,1,0,0,1,0,1,0,0,0,0,0,1,0,0,0,0,0,1,0,1,0,1,0,1,0,1,0,1,"English","one_play_two_responses","stimulus23_B","orderSI=105","orderAI=108","0:4.9","108;",1,0,"A","B",0
"245","X_WBDYKIXFME","English","0:38.8",1,0,0,0,0,0,0,0,0,1,0,0,0,0,1,0,1,0,1,0,0,0,0,1,93,"English",0,0,0,0,1,0,0,1,0,1,0,0,0,0,0,1,0,0,0,0,0,1,0,1,0,1,0,1,0,1,0,1,"English","one_play_two_responses","stimulus76_A","orderSI=84","orderAI=109","0:4.4","109;",0,1,"B","A",0
"246","X_WBDYKIXFME","English","0:38.8",1,0,0,0,0,0,0,0,0,1,0,0,0,0,1,0,1,0,1,0,0,0,0,1,93,"English",0,0,0,0,1,0,0,1,0,1,0,0,0,0,0,1,0,0,0,0,0,1,0,1,0,1,0,1,0,1,0,1,"English","one_play_two_responses","stimulus114_B","orderSI=78","orderAI=110","0:4.4","110;",1,0,"A","B",0
"247","X_WBDYKIXFME","English","0:38.8",1,0,0,0,0,0,0,0,0,1,0,0,0,0,1,0,1,0,1,0,0,0,0,1,93,"English",0,0,0,0,1,0,0,1,0,1,0,0,0,0,0,1,0,0,0,0,0,1,0,1,0,1,0,1,0,1,0,1,"English","one_play_two_responses","stimulus121_A","orderSI=71","orderAI=111","0:4.6","111;",0,1,"B","A",0
"248","X_WBDYKIXFME","English","0:38.8",1,0,0,0,0,0,0,0,0,1,0,0,0,0,1,0,1,0,1,0,0,0,0,1,93,"English",0,0,0,0,1,0,0,1,0,1,0,0,0,0,0,1,0,0,0,0,0,1,0,1,0,1,0,1,0,1,0,1,"English","one_play_two_responses","stimulus27_B","orderSI=101","orderAI=112","0:7.0","112;",1,0,"A","B",0
"249","X_WBDYKIXFME","English","0:38.8",1,0,0,0,0,0,0,0,0,1,0,0,0,0,1,0,1,0,1,0,0,0,0,1,93,"English",0,0,0,0,1,0,0,1,0,1,0,0,0,0,0,1,0,0,0,0,0,1,0,1,0,1,0,1,0,1,0,1,"English","one_play_two_responses","stimulus6_B","orderSI=156","orderAI=114","0:10.1","114;",1,0,"A","B",0
"250","X_WBDYKIXFME","English","0:38.8",1,0,0,0,0,0,0,0,0,1,0,0,0,0,1,0,1,0,1,0,0,0,0,1,93,"English",0,0,0,0,1,0,0,1,0,1,0,0,0,0,0,1,0,0,0,0,0,1,0,1,0,1,0,1,0,1,0,1,"English","one_play_two_responses","stimulus107_B","orderSI=119","orderAI=115","0:5.4","115;",1,0,"A","B",0
"251","X_WBDYKIXFME","English","0:38.8",1,0,0,0,0,0,0,0,0,1,0,0,0,0,1,0,1,0,1,0,0,0,0,1,93,"English",0,0,0,0,1,0,0,1,0,1,0,0,0,0,0,1,0,0,0,0,0,1,0,1,0,1,0,1,0,1,0,1,"English","one_play_two_responses","stimulus109_A","orderSI=117","orderAI=116","0:3.8","116;",0,1,"B","A",0
"252","X_WBDYKIXFME","English","0:38.8",1,0,0,0,0,0,0,0,0,1,0,0,0,0,1,0,1,0,1,0,0,0,0,1,93,"English",0,0,0,0,1,0,0,1,0,1,0,0,0,0,0,1,0,0,0,0,0,1,0,1,0,1,0,1,0,1,0,1,"English","one_play_two_responses","stimulus4_A","orderSI=158","orderAI=117","0:4.2","117;",0,1,"B","A",0
"253","X_WBDYKIXFME","English","0:38.8",1,0,0,0,0,0,0,0,0,1,0,0,0,0,1,0,1,0,1,0,0,0,0,1,93,"English",0,0,0,0,1,0,0,1,0,1,0,0,0,0,0,1,0,0,0,0,0,1,0,1,0,1,0,1,0,1,0,1,"English","one_play_two_responses","stimulus100_A","orderSI=126","orderAI=118","0:3.9","118;",0,1,"B","A",0
"254","X_WBDYKIXFME","English","0:38.8",1,0,0,0,0,0,0,0,0,1,0,0,0,0,1,0,1,0,1,0,0,0,0,1,93,"English",0,0,0,0,1,0,0,1,0,1,0,0,0,0,0,1,0,0,0,0,0,1,0,1,0,1,0,1,0,1,0,1,"English","one_play_two_responses","stimulus111_B","orderSI=115","orderAI=119","0:5.9","119;",0,1,"B","B",1
"255","X_WBDYKIXFME","English","0:38.8",1,0,0,0,0,0,0,0,0,1,0,0,0,0,1,0,1,0,1,0,0,0,0,1,93,"English",0,0,0,0,1,0,0,1,0,1,0,0,0,0,0,1,0,0,0,0,0,1,0,1,0,1,0,1,0,1,0,1,"English","one_play_two_responses","stimulus10_B","orderSI=152","orderAI=120","0:7.3","120;",0,1,"B","B",1
"256","X_WBDYKIXFME","English","0:38.8",1,0,0,0,0,0,0,0,0,1,0,0,0,0,1,0,1,0,1,0,0,0,0,1,93,"English",0,0,0,0,1,0,0,1,0,1,0,0,0,0,0,1,0,0,0,0,0,1,0,1,0,1,0,1,0,1,0,1,"English","one_play_two_responses","stimulus101_A","orderSI=125","orderAI=121","0:4.1","121;",0,1,"B","A",0
"257","X_WBDYKIXFME","English","0:38.8",1,0,0,0,0,0,0,0,0,1,0,0,0,0,1,0,1,0,1,0,0,0,0,1,93,"English",0,0,0,0,1,0,0,1,0,1,0,0,0,0,0,1,0,0,0,0,0,1,0,1,0,1,0,1,0,1,0,1,"English","one_play_two_responses","stimulus5_A","orderSI=157","orderAI=122","0:4.4","122;",0,1,"B","A",0
"258","X_WBDYKIXFME","English","0:38.8",1,0,0,0,0,0,0,0,0,1,0,0,0,0,1,0,1,0,1,0,0,0,0,1,93,"English",0,0,0,0,1,0,0,1,0,1,0,0,0,0,0,1,0,0,0,0,0,1,0,1,0,1,0,1,0,1,0,1,"English","one_play_two_responses","stimulus16_A","orderSI=146","orderAI=123","0:19.4","123;",1,0,"A","A",1
"259","X_WBDYKIXFME","English","0:38.8",1,0,0,0,0,0,0,0,0,1,0,0,0,0,1,0,1,0,1,0,0,0,0,1,93,"English",0,0,0,0,1,0,0,1,0,1,0,0,0,0,0,1,0,0,0,0,0,1,0,1,0,1,0,1,0,1,0,1,"English","one_play_two_responses","stimulus2_B","orderSI=160","orderAI=124","0:10.8","124;",1,0,"A","B",0
"260","X_WBDYKIXFME","English","0:38.8",1,0,0,0,0,0,0,0,0,1,0,0,0,0,1,0,1,0,1,0,0,0,0,1,93,"English",0,0,0,0,1,0,0,1,0,1,0,0,0,0,0,1,0,0,0,0,0,1,0,1,0,1,0,1,0,1,0,1,"English","one_play_two_responses","stimulus62_B","orderSI=132","orderAI=125","0:5.7","125;",1,0,"A","B",0
"261","X_WBDYKIXFME","English","0:38.8",1,0,0,0,0,0,0,0,0,1,0,0,0,0,1,0,1,0,1,0,0,0,0,1,93,"English",0,0,0,0,1,0,0,1,0,1,0,0,0,0,0,1,0,0,0,0,0,1,0,1,0,1,0,1,0,1,0,1,"English","one_play_two_responses","stimulus11_B","orderSI=151","orderAI=126","0:5.0","126;",1,0,"A","B",0
"262","X_WBDYKIXFME","English","0:38.8",1,0,0,0,0,0,0,0,0,1,0,0,0,0,1,0,1,0,1,0,0,0,0,1,93,"English",0,0,0,0,1,0,0,1,0,1,0,0,0,0,0,1,0,0,0,0,0,1,0,1,0,1,0,1,0,1,0,1,"English","one_play_two_responses","stimulus110_B","orderSI=116","orderAI=127","0:6.6","127;",0,1,"B","B",1
"263","X_WBDYKIXFME","English","0:38.8",1,0,0,0,0,0,0,0,0,1,0,0,0,0,1,0,1,0,1,0,0,0,0,1,93,"English",0,0,0,0,1,0,0,1,0,1,0,0,0,0,0,1,0,0,0,0,0,1,0,1,0,1,0,1,0,1,0,1,"English","one_play_two_responses","stimulus102_B","orderSI=124","orderAI=128","0:6.8","128;",1,0,"A","B",0
"264","X_WBDYKIXFME","English","0:38.8",1,0,0,0,0,0,0,0,0,1,0,0,0,0,1,0,1,0,1,0,0,0,0,1,93,"English",0,0,0,0,1,0,0,1,0,1,0,0,0,0,0,1,0,0,0,0,0,1,0,1,0,1,0,1,0,1,0,1,"English","one_play_two_responses","stimulus105_A","orderSI=121","orderAI=129","0:4.5","129;",0,1,"B","A",0
"265","X_WBDYKIXFME","English","0:38.8",1,0,0,0,0,0,0,0,0,1,0,0,0,0,1,0,1,0,1,0,0,0,0,1,93,"English",0,0,0,0,1,0,0,1,0,1,0,0,0,0,0,1,0,0,0,0,0,1,0,1,0,1,0,1,0,1,0,1,"English","one_play_two_responses","stimulus112_A","orderSI=114","orderAI=130","0:4.6","130;",0,1,"B","A",0
"266","X_WBDYKIXFME","English","0:38.8",1,0,0,0,0,0,0,0,0,1,0,0,0,0,1,0,1,0,1,0,0,0,0,1,93,"English",0,0,0,0,1,0,0,1,0,1,0,0,0,0,0,1,0,0,0,0,0,1,0,1,0,1,0,1,0,1,0,1,"English","one_play_two_responses","stimulus7_B","orderSI=155","orderAI=131","0:5.9","131;",1,0,"A","B",0
"267","X_WBDYKIXFME","English","0:38.8",1,0,0,0,0,0,0,0,0,1,0,0,0,0,1,0,1,0,1,0,0,0,0,1,93,"English",0,0,0,0,1,0,0,1,0,1,0,0,0,0,0,1,0,0,0,0,0,1,0,1,0,1,0,1,0,1,0,1,"English","one_play_two_responses","stimulus13_A","orderSI=149","orderAI=132","0:4.6","132;",0,1,"B","A",0
"268","X_WBDYKIXFME","English","0:38.8",1,0,0,0,0,0,0,0,0,1,0,0,0,0,1,0,1,0,1,0,0,0,0,1,93,"English",0,0,0,0,1,0,0,1,0,1,0,0,0,0,0,1,0,0,0,0,0,1,0,1,0,1,0,1,0,1,0,1,"English","one_play_two_responses","stimulus97_A","orderSI=129","orderAI=133","0:4.1","133;",0,1,"B","A",0
"269","X_WBDYKIXFME","English","0:38.8",1,0,0,0,0,0,0,0,0,1,0,0,0,0,1,0,1,0,1,0,0,0,0,1,93,"English",0,0,0,0,1,0,0,1,0,1,0,0,0,0,0,1,0,0,0,0,0,1,0,1,0,1,0,1,0,1,0,1,"English","one_play_two_responses","stimulus1_A","orderSI=161","orderAI=134","0:4.0","134;",0,1,"B","A",0
"270","X_WBDYKIXFME","English","0:38.8",1,0,0,0,0,0,0,0,0,1,0,0,0,0,1,0,1,0,1,0,0,0,0,1,93,"English",0,0,0,0,1,0,0,1,0,1,0,0,0,0,0,1,0,0,0,0,0,1,0,1,0,1,0,1,0,1,0,1,"English","one_play_two_responses","stimulus59_B","orderSI=135","orderAI=135","0:5.1","135;",1,0,"A","B",0
"271","X_WBDYKIXFME","English","0:38.8",1,0,0,0,0,0,0,0,0,1,0,0,0,0,1,0,1,0,1,0,0,0,0,1,93,"English",0,0,0,0,1,0,0,1,0,1,0,0,0,0,0,1,0,0,0,0,0,1,0,1,0,1,0,1,0,1,0,1,"English","one_play_two_responses","stimulus55_B","orderSI=139","orderAI=136","0:6.6","136;",0,1,"B","B",1
"272","X_WBDYKIXFME","English","0:38.8",1,0,0,0,0,0,0,0,0,1,0,0,0,0,1,0,1,0,1,0,0,0,0,1,93,"English",0,0,0,0,1,0,0,1,0,1,0,0,0,0,0,1,0,0,0,0,0,1,0,1,0,1,0,1,0,1,0,1,"English","one_play_two_responses","stimulus63_B","orderSI=131","orderAI=137","0:6.3","137;",0,1,"B","B",1
"273","X_WBDYKIXFME","English","0:38.8",1,0,0,0,0,0,0,0,0,1,0,0,0,0,1,0,1,0,1,0,0,0,0,1,93,"English",0,0,0,0,1,0,0,1,0,1,0,0,0,0,0,1,0,0,0,0,0,1,0,1,0,1,0,1,0,1,0,1,"English","one_play_two_responses","stimulus61_A","orderSI=133","orderAI=138","0:4.3","138;",0,1,"B","A",0
"274","X_WBDYKIXFME","English","0:38.8",1,0,0,0,0,0,0,0,0,1,0,0,0,0,1,0,1,0,1,0,0,0,0,1,93,"English",0,0,0,0,1,0,0,1,0,1,0,0,0,0,0,1,0,0,0,0,0,1,0,1,0,1,0,1,0,1,0,1,"English","one_play_two_responses","stimulus49_A","orderSI=145","orderAI=139","0:5.1","139;",1,0,"A","A",1
"275","X_WBDYKIXFME","English","0:38.8",1,0,0,0,0,0,0,0,0,1,0,0,0,0,1,0,1,0,1,0,0,0,0,1,93,"English",0,0,0,0,1,0,0,1,0,1,0,0,0,0,0,1,0,0,0,0,0,1,0,1,0,1,0,1,0,1,0,1,"English","one_play_two_responses","stimulus103_B","orderSI=123","orderAI=140","0:5.2","140;",0,1,"B","B",1
"276","X_WBDYKIXFME","English","0:38.8",1,0,0,0,0,0,0,0,0,1,0,0,0,0,1,0,1,0,1,0,0,0,0,1,93,"English",0,0,0,0,1,0,0,1,0,1,0,0,0,0,0,1,0,0,0,0,0,1,0,1,0,1,0,1,0,1,0,1,"English","one_play_two_responses","stimulus51_B","orderSI=143","orderAI=141","0:5.1","141;",1,0,"A","B",0
"277","X_WBDYKIXFME","English","0:38.8",1,0,0,0,0,0,0,0,0,1,0,0,0,0,1,0,1,0,1,0,0,0,0,1,93,"English",0,0,0,0,1,0,0,1,0,1,0,0,0,0,0,1,0,0,0,0,0,1,0,1,0,1,0,1,0,1,0,1,"English","one_play_two_responses","stimulus57_A","orderSI=137","orderAI=142","0:4.3","142;",0,1,"B","A",0
"278","X_WBDYKIXFME","English","0:38.8",1,0,0,0,0,0,0,0,0,1,0,0,0,0,1,0,1,0,1,0,0,0,0,1,93,"English",0,0,0,0,1,0,0,1,0,1,0,0,0,0,0,1,0,0,0,0,0,1,0,1,0,1,0,1,0,1,0,1,"English","one_play_two_responses","stimulus50_B","orderSI=144","orderAI=143","0:4.1","143;",1,0,"A","B",0
"279","X_WBDYKIXFME","English","0:38.8",1,0,0,0,0,0,0,0,0,1,0,0,0,0,1,0,1,0,1,0,0,0,0,1,93,"English",0,0,0,0,1,0,0,1,0,1,0,0,0,0,0,1,0,0,0,0,0,1,0,1,0,1,0,1,0,1,0,1,"English","one_play_two_responses","stimulus3_B","orderSI=159","orderAI=144","0:5.2","144;",1,0,"A","B",0
"280","X_WBDYKIXFME","English","0:38.8",1,0,0,0,0,0,0,0,0,1,0,0,0,0,1,0,1,0,1,0,0,0,0,1,93,"English",0,0,0,0,1,0,0,1,0,1,0,0,0,0,0,1,0,0,0,0,0,1,0,1,0,1,0,1,0,1,0,1,"English","one_play_two_responses","stimulus14_B","orderSI=148","orderAI=145","0:5.2","145;",1,0,"A","B",0
"281","X_WBDYKIXFME","English","0:38.8",1,0,0,0,0,0,0,0,0,1,0,0,0,0,1,0,1,0,1,0,0,0,0,1,93,"English",0,0,0,0,1,0,0,1,0,1,0,0,0,0,0,1,0,0,0,0,0,1,0,1,0,1,0,1,0,1,0,1,"English","one_play_two_responses","stimulus15_B","orderSI=147","orderAI=146","0:6.3","146;",0,1,"B","B",1
"282","X_WBDYKIXFME","English","0:38.8",1,0,0,0,0,0,0,0,0,1,0,0,0,0,1,0,1,0,1,0,0,0,0,1,93,"English",0,0,0,0,1,0,0,1,0,1,0,0,0,0,0,1,0,0,0,0,0,1,0,1,0,1,0,1,0,1,0,1,"English","one_play_two_responses","stimulus8_A","orderSI=154","orderAI=147","0:5.3","147;",0,1,"B","A",0
"283","X_WBDYKIXFME","English","0:38.8",1,0,0,0,0,0,0,0,0,1,0,0,0,0,1,0,1,0,1,0,0,0,0,1,93,"English",0,0,0,0,1,0,0,1,0,1,0,0,0,0,0,1,0,0,0,0,0,1,0,1,0,1,0,1,0,1,0,1,"English","one_play_two_responses","stimulus108_A","orderSI=118","orderAI=148","0:3.6","148;",0,1,"B","A",0
"284","X_WBDYKIXFME","English","0:38.8",1,0,0,0,0,0,0,0,0,1,0,0,0,0,1,0,1,0,1,0,0,0,0,1,93,"English",0,0,0,0,1,0,0,1,0,1,0,0,0,0,0,1,0,0,0,0,0,1,0,1,0,1,0,1,0,1,0,1,"English","one_play_two_responses","stimulus104_A","orderSI=122","orderAI=149","0:3.4","149;",0,1,"B","A",0
"285","X_WBDYKIXFME","English","0:38.8",1,0,0,0,0,0,0,0,0,1,0,0,0,0,1,0,1,0,1,0,0,0,0,1,93,"English",0,0,0,0,1,0,0,1,0,1,0,0,0,0,0,1,0,0,0,0,0,1,0,1,0,1,0,1,0,1,0,1,"English","one_play_two_responses","stimulus64_A","orderSI=130","orderAI=150","0:3.8","150;",0,1,"B","A",0
"286","X_WBDYKIXFME","English","0:38.8",1,0,0,0,0,0,0,0,0,1,0,0,0,0,1,0,1,0,1,0,0,0,0,1,93,"English",0,0,0,0,1,0,0,1,0,1,0,0,0,0,0,1,0,0,0,0,0,1,0,1,0,1,0,1,0,1,0,1,"English","one_play_two_responses","stimulus53_A","orderSI=141","orderAI=151","0:3.8","151;",0,1,"B","A",0
"287","X_WBDYKIXFME","English","0:38.8",1,0,0,0,0,0,0,0,0,1,0,0,0,0,1,0,1,0,1,0,0,0,0,1,93,"English",0,0,0,0,1,0,0,1,0,1,0,0,0,0,0,1,0,0,0,0,0,1,0,1,0,1,0,1,0,1,0,1,"English","one_play_two_responses","stimulus98_B","orderSI=128","orderAI=152","0:4.5","152;",1,0,"A","B",0
"288","X_WBDYKIXFME","English","0:38.8",1,0,0,0,0,0,0,0,0,1,0,0,0,0,1,0,1,0,1,0,0,0,0,1,93,"English",0,0,0,0,1,0,0,1,0,1,0,0,0,0,0,1,0,0,0,0,0,1,0,1,0,1,0,1,0,1,0,1,"English","one_play_two_responses","stimulus106_B","orderSI=120","orderAI=153","0:4.4","153;",1,0,"A","B",0
"289","X_WBDYKIXFME","English","0:38.8",1,0,0,0,0,0,0,0,0,1,0,0,0,0,1,0,1,0,1,0,0,0,0,1,93,"English",0,0,0,0,1,0,0,1,0,1,0,0,0,0,0,1,0,0,0,0,0,1,0,1,0,1,0,1,0,1,0,1,"English","one_play_two_responses","stimulus58_B","orderSI=136","orderAI=154","0:4.8","154;",1,0,"A","B",0
"290","X_WBDYKIXFME","English","0:38.8",1,0,0,0,0,0,0,0,0,1,0,0,0,0,1,0,1,0,1,0,0,0,0,1,93,"English",0,0,0,0,1,0,0,1,0,1,0,0,0,0,0,1,0,0,0,0,0,1,0,1,0,1,0,1,0,1,0,1,"English","one_play_two_responses","stimulus99_B","orderSI=127","orderAI=155","0:4.3","155;",0,1,"B","B",1
"291","X_WBDYKIXFME","English","0:38.8",1,0,0,0,0,0,0,0,0,1,0,0,0,0,1,0,1,0,1,0,0,0,0,1,93,"English",0,0,0,0,1,0,0,1,0,1,0,0,0,0,0,1,0,0,0,0,0,1,0,1,0,1,0,1,0,1,0,1,"English","one_play_two_responses","stimulus12_A","orderSI=150","orderAI=156","0:4.3","156;",0,1,"B","A",0
"292","X_WBDYKIXFME","English","0:38.8",1,0,0,0,0,0,0,0,0,1,0,0,0,0,1,0,1,0,1,0,0,0,0,1,93,"English",0,0,0,0,1,0,0,1,0,1,0,0,0,0,0,1,0,0,0,0,0,1,0,1,0,1,0,1,0,1,0,1,"English","one_play_two_responses","stimulus54_B","orderSI=140","orderAI=157","0:4.7","157;",1,0,"A","B",0
"293","X_WBDYKIXFME","English","0:38.8",1,0,0,0,0,0,0,0,0,1,0,0,0,0,1,0,1,0,1,0,0,0,0,1,93,"English",0,0,0,0,1,0,0,1,0,1,0,0,0,0,0,1,0,0,0,0,0,1,0,1,0,1,0,1,0,1,0,1,"English","one_play_two_responses","stimulus60_A","orderSI=134","orderAI=158","0:4.6","158;",0,1,"B","A",0
"294","X_WBDYKIXFME","English","0:38.8",1,0,0,0,0,0,0,0,0,1,0,0,0,0,1,0,1,0,1,0,0,0,0,1,93,"English",0,0,0,0,1,0,0,1,0,1,0,0,0,0,0,1,0,0,0,0,0,1,0,1,0,1,0,1,0,1,0,1,"English","one_play_two_responses","stimulus52_A","orderSI=142","orderAI=159","0:6.2","159;",0,1,"B","A",0
"295","X_WBDYKIXFME","English","0:38.8",1,0,0,0,0,0,0,0,0,1,0,0,0,0,1,0,1,0,1,0,0,0,0,1,93,"English",0,0,0,0,1,0,0,1,0,1,0,0,0,0,0,1,0,0,0,0,0,1,0,1,0,1,0,1,0,1,0,1,"English","one_play_two_responses","stimulus9_A","orderSI=153","orderAI=160","0:4.3","160;",0,1,"B","A",0
"296","X_WBDYKIXFME","English","0:38.8",1,0,0,0,0,0,0,0,0,1,0,0,0,0,1,0,1,0,1,0,0,0,0,1,93,"English",0,0,0,0,1,0,0,1,0,1,0,0,0,0,0,1,0,0,0,0,0,1,0,1,0,1,0,1,0,1,0,1,"English","one_play_two_responses","stimulus56_A","orderSI=138","orderAI=162","0:4.5","162;",0,1,"B","A",0
"297","X_VHNXKCTPGY","English","0:31.9",1,0,0,0,0,0,0,0,0,1,0,0,0,1,0,0,1,1,0,0,0,0,1,0,50,"English",0,1,0,0,0,0,1,0,0,1,0,0,0,0,1,0,0,0,0,0,0,1,0,1,0,1,0,1,0,1,0,1,"English","prot_catch_trial","stimulus49_A","orderSI=8","orderAI=8","0:14.8","8;",0,1,"B","A",0
"298","X_VHNXKCTPGY","English","0:31.9",1,0,0,0,0,0,0,0,0,1,0,0,0,1,0,0,1,1,0,0,0,0,1,0,50,"English",0,1,0,0,0,0,1,0,0,1,0,0,0,0,1,0,0,0,0,0,0,1,0,1,0,1,0,1,0,1,0,1,"English","prot_catch_trial","stimulus50_B","orderSI=9","orderAI=9","0:8.6","9;",1,0,"A","B",0
"299","X_VHNXKCTPGY","English","0:31.9",1,0,0,0,0,0,0,0,0,1,0,0,0,1,0,0,1,1,0,0,0,0,1,0,50,"English",0,1,0,0,0,0,1,0,0,1,0,0,0,0,1,0,0,0,0,0,0,1,0,1,0,1,0,1,0,1,0,1,"English","prot_catch_trial","stimulus100_A","orderSI=10","orderAI=10","0:10.5","10;",1,0,"A","A",1
"300","X_VHNXKCTPGY","English","0:31.9",1,0,0,0,0,0,0,0,0,1,0,0,0,1,0,0,1,1,0,0,0,0,1,0,50,"English",0,1,0,0,0,0,1,0,0,1,0,0,0,0,1,0,0,0,0,0,0,1,0,1,0,1,0,1,0,1,0,1,"English","prot_catch_trial","stimulus104_A","orderSI=11","orderAI=11","0:5.0","11;",1,0,"A","A",1
"301","X_VHNXKCTPGY","English","0:31.9",1,0,0,0,0,0,0,0,0,1,0,0,0,1,0,0,1,1,0,0,0,0,1,0,50,"English",0,1,0,0,0,0,1,0,0,1,0,0,0,0,1,0,0,0,0,0,0,1,0,1,0,1,0,1,0,1,0,1,"English","one_play_two_responses","stimulus41_A","orderSI=53","orderAI=14","0:5.1","14;",1,0,"A","A",1
"302","X_VHNXKCTPGY","English","0:31.9",1,0,0,0,0,0,0,0,0,1,0,0,0,1,0,0,1,1,0,0,0,0,1,0,50,"English",0,1,0,0,0,0,1,0,0,1,0,0,0,0,1,0,0,0,0,0,0,1,0,1,0,1,0,1,0,1,0,1,"English","one_play_two_responses","stimulus96_A","orderSI=30","orderAI=15","0:4.6","15;",1,0,"A","A",1
"303","X_VHNXKCTPGY","English","0:31.9",1,0,0,0,0,0,0,0,0,1,0,0,0,1,0,0,1,1,0,0,0,0,1,0,50,"English",0,1,0,0,0,0,1,0,0,1,0,0,0,0,1,0,0,0,0,0,0,1,0,1,0,1,0,1,0,1,0,1,"English","one_play_two_responses","stimulus38_B","orderSI=56","orderAI=16","0:5.0","16;",0,1,"B","B",1
"304","X_VHNXKCTPGY","English","0:31.9",1,0,0,0,0,0,0,0,0,1,0,0,0,1,0,0,1,1,0,0,0,0,1,0,50,"English",0,1,0,0,0,0,1,0,0,1,0,0,0,0,1,0,0,0,0,0,0,1,0,1,0,1,0,1,0,1,0,1,"English","one_play_two_responses","stimulus129_A","orderSI=29","orderAI=17","0:3.9","17;",1,0,"A","A",1
"305","X_VHNXKCTPGY","English","0:31.9",1,0,0,0,0,0,0,0,0,1,0,0,0,1,0,0,1,1,0,0,0,0,1,0,50,"English",0,1,0,0,0,0,1,0,0,1,0,0,0,0,1,0,0,0,0,0,0,1,0,1,0,1,0,1,0,1,0,1,"English","one_play_two_responses","stimulus47_B","orderSI=47","orderAI=19","0:5.9","19;",0,1,"B","B",1
"306","X_VHNXKCTPGY","English","0:31.9",1,0,0,0,0,0,0,0,0,1,0,0,0,1,0,0,1,1,0,0,0,0,1,0,50,"English",0,1,0,0,0,0,1,0,0,1,0,0,0,0,1,0,0,0,0,0,0,1,0,1,0,1,0,1,0,1,0,1,"English","one_play_two_responses","stimulus144_A","orderSI=14","orderAI=20","0:5.0","20;",0,1,"B","A",0
"307","X_VHNXKCTPGY","English","0:31.9",1,0,0,0,0,0,0,0,0,1,0,0,0,1,0,0,1,1,0,0,0,0,1,0,50,"English",0,1,0,0,0,0,1,0,0,1,0,0,0,0,1,0,0,0,0,0,0,1,0,1,0,1,0,1,0,1,0,1,"English","one_play_two_responses","stimulus43_B","orderSI=51","orderAI=21","0:4.6","21;",0,1,"B","B",1
"308","X_VHNXKCTPGY","English","0:31.9",1,0,0,0,0,0,0,0,0,1,0,0,0,1,0,0,1,1,0,0,0,0,1,0,50,"English",0,1,0,0,0,0,1,0,0,1,0,0,0,0,1,0,0,0,0,0,0,1,0,1,0,1,0,1,0,1,0,1,"English","one_play_two_responses","stimulus88_A","orderSI=38","orderAI=22","0:4.1","22;",1,0,"A","A",1
"309","X_VHNXKCTPGY","English","0:31.9",1,0,0,0,0,0,0,0,0,1,0,0,0,1,0,0,1,1,0,0,0,0,1,0,50,"English",0,1,0,0,0,0,1,0,0,1,0,0,0,0,1,0,0,0,0,0,0,1,0,1,0,1,0,1,0,1,0,1,"English","one_play_two_responses","stimulus81_A","orderSI=45","orderAI=23","0:4.1","23;",1,0,"A","A",1
"310","X_VHNXKCTPGY","English","0:31.9",1,0,0,0,0,0,0,0,0,1,0,0,0,1,0,0,1,1,0,0,0,0,1,0,50,"English",0,1,0,0,0,0,1,0,0,1,0,0,0,0,1,0,0,0,0,0,0,1,0,1,0,1,0,1,0,1,0,1,"English","one_play_two_responses","stimulus94_B","orderSI=32","orderAI=24","0:3.8","24;",0,1,"B","B",1
"311","X_VHNXKCTPGY","English","0:31.9",1,0,0,0,0,0,0,0,0,1,0,0,0,1,0,0,1,1,0,0,0,0,1,0,50,"English",0,1,0,0,0,0,1,0,0,1,0,0,0,0,1,0,0,0,0,0,0,1,0,1,0,1,0,1,0,1,0,1,"English","one_play_two_responses","stimulus143_B","orderSI=15","orderAI=25","0:4.1","25;",0,1,"B","B",1
"312","X_VHNXKCTPGY","English","0:31.9",1,0,0,0,0,0,0,0,0,1,0,0,0,1,0,0,1,1,0,0,0,0,1,0,50,"English",0,1,0,0,0,0,1,0,0,1,0,0,0,0,1,0,0,0,0,0,0,1,0,1,0,1,0,1,0,1,0,1,"English","one_play_two_responses","stimulus91_B","orderSI=35","orderAI=26","0:4.6","26;",0,1,"B","B",1
"313","X_VHNXKCTPGY","English","0:31.9",1,0,0,0,0,0,0,0,0,1,0,0,0,1,0,0,1,1,0,0,0,0,1,0,50,"English",0,1,0,0,0,0,1,0,0,1,0,0,0,0,1,0,0,0,0,0,0,1,0,1,0,1,0,1,0,1,0,1,"English","one_play_two_responses","stimulus42_B","orderSI=52","orderAI=27","0:4.3","27;",0,1,"B","B",1
"314","X_VHNXKCTPGY","English","0:31.9",1,0,0,0,0,0,0,0,0,1,0,0,0,1,0,0,1,1,0,0,0,0,1,0,50,"English",0,1,0,0,0,0,1,0,0,1,0,0,0,0,1,0,0,0,0,0,0,1,0,1,0,1,0,1,0,1,0,1,"English","one_play_two_responses","stimulus142_B","orderSI=16","orderAI=28","0:3.9","28;",0,1,"B","B",1
"315","X_VHNXKCTPGY","English","0:31.9",1,0,0,0,0,0,0,0,0,1,0,0,0,1,0,0,1,1,0,0,0,0,1,0,50,"English",0,1,0,0,0,0,1,0,0,1,0,0,0,0,1,0,0,0,0,0,0,1,0,1,0,1,0,1,0,1,0,1,"English","one_play_two_responses","stimulus86_B","orderSI=40","orderAI=29","0:3.5","29;",0,1,"B","B",1
"316","X_VHNXKCTPGY","English","0:31.9",1,0,0,0,0,0,0,0,0,1,0,0,0,1,0,0,1,1,0,0,0,0,1,0,50,"English",0,1,0,0,0,0,1,0,0,1,0,0,0,0,1,0,0,0,0,0,0,1,0,1,0,1,0,1,0,1,0,1,"English","one_play_two_responses","stimulus85_A","orderSI=41","orderAI=30","0:4.1","30;",1,0,"A","A",1
"317","X_VHNXKCTPGY","English","0:31.9",1,0,0,0,0,0,0,0,0,1,0,0,0,1,0,0,1,1,0,0,0,0,1,0,50,"English",0,1,0,0,0,0,1,0,0,1,0,0,0,0,1,0,0,0,0,0,0,1,0,1,0,1,0,1,0,1,0,1,"English","one_play_two_responses","stimulus130_B","orderSI=28","orderAI=31","0:3.9","31;",0,1,"B","B",1
"318","X_VHNXKCTPGY","English","0:31.9",1,0,0,0,0,0,0,0,0,1,0,0,0,1,0,0,1,1,0,0,0,0,1,0,50,"English",0,1,0,0,0,0,1,0,0,1,0,0,0,0,1,0,0,0,0,0,0,1,0,1,0,1,0,1,0,1,0,1,"English","one_play_two_responses","stimulus133_A","orderSI=25","orderAI=32","0:3.9","32;",1,0,"A","A",1
"319","X_VHNXKCTPGY","English","0:31.9",1,0,0,0,0,0,0,0,0,1,0,0,0,1,0,0,1,1,0,0,0,0,1,0,50,"English",0,1,0,0,0,0,1,0,0,1,0,0,0,0,1,0,0,0,0,0,0,1,0,1,0,1,0,1,0,1,0,1,"English","one_play_two_responses","stimulus134_B","orderSI=24","orderAI=33","0:3.6","33;",0,1,"B","B",1
"320","X_VHNXKCTPGY","English","0:31.9",1,0,0,0,0,0,0,0,0,1,0,0,0,1,0,0,1,1,0,0,0,0,1,0,50,"English",0,1,0,0,0,0,1,0,0,1,0,0,0,0,1,0,0,0,0,0,0,1,0,1,0,1,0,1,0,1,0,1,"English","one_play_two_responses","stimulus135_B","orderSI=23","orderAI=34","0:4.0","34;",0,1,"B","B",1
"321","X_VHNXKCTPGY","English","0:31.9",1,0,0,0,0,0,0,0,0,1,0,0,0,1,0,0,1,1,0,0,0,0,1,0,50,"English",0,1,0,0,0,0,1,0,0,1,0,0,0,0,1,0,0,0,0,0,0,1,0,1,0,1,0,1,0,1,0,1,"English","one_play_two_responses","stimulus37_A","orderSI=57","orderAI=35","0:4.2","35;",1,0,"A","A",1
"322","X_VHNXKCTPGY","English","0:31.9",1,0,0,0,0,0,0,0,0,1,0,0,0,1,0,0,1,1,0,0,0,0,1,0,50,"English",0,1,0,0,0,0,1,0,0,1,0,0,0,0,1,0,0,0,0,0,0,1,0,1,0,1,0,1,0,1,0,1,"English","one_play_two_responses","stimulus36_A","orderSI=58","orderAI=36","0:4.2","36;",1,0,"A","A",1
"323","X_VHNXKCTPGY","English","0:31.9",1,0,0,0,0,0,0,0,0,1,0,0,0,1,0,0,1,1,0,0,0,0,1,0,50,"English",0,1,0,0,0,0,1,0,0,1,0,0,0,0,1,0,0,0,0,0,0,1,0,1,0,1,0,1,0,1,0,1,"English","one_play_two_responses","stimulus132_A","orderSI=26","orderAI=37","0:3.9","37;",1,0,"A","A",1
"324","X_VHNXKCTPGY","English","0:31.9",1,0,0,0,0,0,0,0,0,1,0,0,0,1,0,0,1,1,0,0,0,0,1,0,50,"English",0,1,0,0,0,0,1,0,0,1,0,0,0,0,1,0,0,0,0,0,0,1,0,1,0,1,0,1,0,1,0,1,"English","one_play_two_responses","stimulus35_B","orderSI=59","orderAI=38","0:4.0","38;",0,1,"B","B",1
"325","X_VHNXKCTPGY","English","0:31.9",1,0,0,0,0,0,0,0,0,1,0,0,0,1,0,0,1,1,0,0,0,0,1,0,50,"English",0,1,0,0,0,0,1,0,0,1,0,0,0,0,1,0,0,0,0,0,0,1,0,1,0,1,0,1,0,1,0,1,"English","one_play_two_responses","stimulus48_A","orderSI=46","orderAI=39","0:5.1","39;",1,0,"A","A",1
"326","X_VHNXKCTPGY","English","0:31.9",1,0,0,0,0,0,0,0,0,1,0,0,0,1,0,0,1,1,0,0,0,0,1,0,50,"English",0,1,0,0,0,0,1,0,0,1,0,0,0,0,1,0,0,0,0,0,0,1,0,1,0,1,0,1,0,1,0,1,"English","one_play_two_responses","stimulus44_A","orderSI=50","orderAI=40","0:4.6","40;",1,0,"A","A",1
"327","X_VHNXKCTPGY","English","0:31.9",1,0,0,0,0,0,0,0,0,1,0,0,0,1,0,0,1,1,0,0,0,0,1,0,50,"English",0,1,0,0,0,0,1,0,0,1,0,0,0,0,1,0,0,0,0,0,0,1,0,1,0,1,0,1,0,1,0,1,"English","one_play_two_responses","stimulus83_B","orderSI=43","orderAI=41","0:4.0","41;",0,1,"B","B",1
"328","X_VHNXKCTPGY","English","0:31.9",1,0,0,0,0,0,0,0,0,1,0,0,0,1,0,0,1,1,0,0,0,0,1,0,50,"English",0,1,0,0,0,0,1,0,0,1,0,0,0,0,1,0,0,0,0,0,0,1,0,1,0,1,0,1,0,1,0,1,"English","one_play_two_responses","stimulus138_B","orderSI=20","orderAI=42","0:3.7","42;",0,1,"B","B",1
"329","X_VHNXKCTPGY","English","0:31.9",1,0,0,0,0,0,0,0,0,1,0,0,0,1,0,0,1,1,0,0,0,0,1,0,50,"English",0,1,0,0,0,0,1,0,0,1,0,0,0,0,1,0,0,0,0,0,0,1,0,1,0,1,0,1,0,1,0,1,"English","one_play_two_responses","stimulus40_A","orderSI=54","orderAI=43","0:7.2","43;",0,1,"B","A",0
"330","X_VHNXKCTPGY","English","0:31.9",1,0,0,0,0,0,0,0,0,1,0,0,0,1,0,0,1,1,0,0,0,0,1,0,50,"English",0,1,0,0,0,0,1,0,0,1,0,0,0,0,1,0,0,0,0,0,0,1,0,1,0,1,0,1,0,1,0,1,"English","one_play_two_responses","stimulus89_A","orderSI=37","orderAI=44","0:5.2","44;",1,0,"A","A",1
"331","X_VHNXKCTPGY","English","0:31.9",1,0,0,0,0,0,0,0,0,1,0,0,0,1,0,0,1,1,0,0,0,0,1,0,50,"English",0,1,0,0,0,0,1,0,0,1,0,0,0,0,1,0,0,0,0,0,0,1,0,1,0,1,0,1,0,1,0,1,"English","one_play_two_responses","stimulus90_B","orderSI=36","orderAI=45","0:4.2","45;",0,1,"B","B",1
"332","X_VHNXKCTPGY","English","0:31.9",1,0,0,0,0,0,0,0,0,1,0,0,0,1,0,0,1,1,0,0,0,0,1,0,50,"English",0,1,0,0,0,0,1,0,0,1,0,0,0,0,1,0,0,0,0,0,0,1,0,1,0,1,0,1,0,1,0,1,"English","one_play_two_responses","stimulus33_A","orderSI=61","orderAI=46","0:3.9","46;",1,0,"A","A",1
"333","X_VHNXKCTPGY","English","0:31.9",1,0,0,0,0,0,0,0,0,1,0,0,0,1,0,0,1,1,0,0,0,0,1,0,50,"English",0,1,0,0,0,0,1,0,0,1,0,0,0,0,1,0,0,0,0,0,0,1,0,1,0,1,0,1,0,1,0,1,"English","one_play_two_responses","stimulus136_A","orderSI=22","orderAI=47","0:3.4","47;",1,0,"A","A",1
"334","X_VHNXKCTPGY","English","0:31.9",1,0,0,0,0,0,0,0,0,1,0,0,0,1,0,0,1,1,0,0,0,0,1,0,50,"English",0,1,0,0,0,0,1,0,0,1,0,0,0,0,1,0,0,0,0,0,0,1,0,1,0,1,0,1,0,1,0,1,"English","one_play_two_responses","stimulus87_B","orderSI=39","orderAI=48","0:3.5","48;",0,1,"B","B",1
"335","X_VHNXKCTPGY","English","0:31.9",1,0,0,0,0,0,0,0,0,1,0,0,0,1,0,0,1,1,0,0,0,0,1,0,50,"English",0,1,0,0,0,0,1,0,0,1,0,0,0,0,1,0,0,0,0,0,0,1,0,1,0,1,0,1,0,1,0,1,"English","one_play_two_responses","stimulus92_A","orderSI=34","orderAI=49","0:5.5","49;",1,0,"A","A",1
"336","X_VHNXKCTPGY","English","0:31.9",1,0,0,0,0,0,0,0,0,1,0,0,0,1,0,0,1,1,0,0,0,0,1,0,50,"English",0,1,0,0,0,0,1,0,0,1,0,0,0,0,1,0,0,0,0,0,0,1,0,1,0,1,0,1,0,1,0,1,"English","one_play_two_responses","stimulus95_B","orderSI=31","orderAI=50","0:4.7","50;",0,1,"B","B",1
"337","X_VHNXKCTPGY","English","0:31.9",1,0,0,0,0,0,0,0,0,1,0,0,0,1,0,0,1,1,0,0,0,0,1,0,50,"English",0,1,0,0,0,0,1,0,0,1,0,0,0,0,1,0,0,0,0,0,0,1,0,1,0,1,0,1,0,1,0,1,"English","one_play_two_responses","stimulus131_B","orderSI=27","orderAI=51","0:5.0","51;",0,1,"B","B",1
"338","X_VHNXKCTPGY","English","0:31.9",1,0,0,0,0,0,0,0,0,1,0,0,0,1,0,0,1,1,0,0,0,0,1,0,50,"English",0,1,0,0,0,0,1,0,0,1,0,0,0,0,1,0,0,0,0,0,0,1,0,1,0,1,0,1,0,1,0,1,"English","one_play_two_responses","stimulus45_A","orderSI=49","orderAI=52","0:4.9","52;",1,0,"A","A",1
"339","X_VHNXKCTPGY","English","0:31.9",1,0,0,0,0,0,0,0,0,1,0,0,0,1,0,0,1,1,0,0,0,0,1,0,50,"English",0,1,0,0,0,0,1,0,0,1,0,0,0,0,1,0,0,0,0,0,0,1,0,1,0,1,0,1,0,1,0,1,"English","one_play_two_responses","stimulus141_A","orderSI=17","orderAI=53","0:5.1","53;",1,0,"A","A",1
"340","X_VHNXKCTPGY","English","0:31.9",1,0,0,0,0,0,0,0,0,1,0,0,0,1,0,0,1,1,0,0,0,0,1,0,50,"English",0,1,0,0,0,0,1,0,0,1,0,0,0,0,1,0,0,0,0,0,0,1,0,1,0,1,0,1,0,1,0,1,"English","one_play_two_responses","stimulus34_B","orderSI=60","orderAI=54","0:4.1","54;",0,1,"B","B",1
"341","X_VHNXKCTPGY","English","0:31.9",1,0,0,0,0,0,0,0,0,1,0,0,0,1,0,0,1,1,0,0,0,0,1,0,50,"English",0,1,0,0,0,0,1,0,0,1,0,0,0,0,1,0,0,0,0,0,0,1,0,1,0,1,0,1,0,1,0,1,"English","one_play_two_responses","stimulus46_B","orderSI=48","orderAI=55","0:3.9","55;",0,1,"B","B",1
"342","X_VHNXKCTPGY","English","0:31.9",1,0,0,0,0,0,0,0,0,1,0,0,0,1,0,0,1,1,0,0,0,0,1,0,50,"English",0,1,0,0,0,0,1,0,0,1,0,0,0,0,1,0,0,0,0,0,0,1,0,1,0,1,0,1,0,1,0,1,"English","one_play_two_responses","stimulus139_B","orderSI=19","orderAI=56","0:3.8","56;",0,1,"B","B",1
"343","X_VHNXKCTPGY","English","0:31.9",1,0,0,0,0,0,0,0,0,1,0,0,0,1,0,0,1,1,0,0,0,0,1,0,50,"English",0,1,0,0,0,0,1,0,0,1,0,0,0,0,1,0,0,0,0,0,0,1,0,1,0,1,0,1,0,1,0,1,"English","one_play_two_responses","stimulus82_B","orderSI=44","orderAI=57","0:3.7","57;",0,1,"B","B",1
"344","X_VHNXKCTPGY","English","0:31.9",1,0,0,0,0,0,0,0,0,1,0,0,0,1,0,0,1,1,0,0,0,0,1,0,50,"English",0,1,0,0,0,0,1,0,0,1,0,0,0,0,1,0,0,0,0,0,0,1,0,1,0,1,0,1,0,1,0,1,"English","one_play_two_responses","stimulus137_A","orderSI=21","orderAI=58","0:4.2","58;",1,0,"A","A",1
"345","X_VHNXKCTPGY","English","0:31.9",1,0,0,0,0,0,0,0,0,1,0,0,0,1,0,0,1,1,0,0,0,0,1,0,50,"English",0,1,0,0,0,0,1,0,0,1,0,0,0,0,1,0,0,0,0,0,0,1,0,1,0,1,0,1,0,1,0,1,"English","one_play_two_responses","stimulus84_A","orderSI=42","orderAI=59","0:3.4","59;",1,0,"A","A",1
"346","X_VHNXKCTPGY","English","0:31.9",1,0,0,0,0,0,0,0,0,1,0,0,0,1,0,0,1,1,0,0,0,0,1,0,50,"English",0,1,0,0,0,0,1,0,0,1,0,0,0,0,1,0,0,0,0,0,0,1,0,1,0,1,0,1,0,1,0,1,"English","one_play_two_responses","stimulus93_A","orderSI=33","orderAI=60","0:3.5","60;",0,1,"B","A",0
"347","X_VHNXKCTPGY","English","0:31.9",1,0,0,0,0,0,0,0,0,1,0,0,0,1,0,0,1,1,0,0,0,0,1,0,50,"English",0,1,0,0,0,0,1,0,0,1,0,0,0,0,1,0,0,0,0,0,0,1,0,1,0,1,0,1,0,1,0,1,"English","one_play_two_responses","stimulus140_A","orderSI=18","orderAI=61","0:3.9","61;",1,0,"A","A",1
"348","X_VHNXKCTPGY","English","0:31.9",1,0,0,0,0,0,0,0,0,1,0,0,0,1,0,0,1,1,0,0,0,0,1,0,50,"English",0,1,0,0,0,0,1,0,0,1,0,0,0,0,1,0,0,0,0,0,0,1,0,1,0,1,0,1,0,1,0,1,"English","one_play_two_responses","stimulus39_B","orderSI=55","orderAI=62","0:4.0","62;",0,1,"B","B",1
"349","X_VHNXKCTPGY","English","0:31.9",1,0,0,0,0,0,0,0,0,1,0,0,0,1,0,0,1,1,0,0,0,0,1,0,50,"English",0,1,0,0,0,0,1,0,0,1,0,0,0,0,1,0,0,0,0,0,0,1,0,1,0,1,0,1,0,1,0,1,"English","one_play_two_responses","stimulus119_B","orderSI=73","orderAI=64","0:5.9","64;",0,1,"B","B",1
"350","X_VHNXKCTPGY","English","0:31.9",1,0,0,0,0,0,0,0,0,1,0,0,0,1,0,0,1,1,0,0,0,0,1,0,50,"English",0,1,0,0,0,0,1,0,0,1,0,0,0,0,1,0,0,0,0,0,0,1,0,1,0,1,0,1,0,1,0,1,"English","one_play_two_responses","stimulus29_A","orderSI=99","orderAI=65","0:4.9","65;",1,0,"A","A",1
"351","X_VHNXKCTPGY","English","0:31.9",1,0,0,0,0,0,0,0,0,1,0,0,0,1,0,0,1,1,0,0,0,0,1,0,50,"English",0,1,0,0,0,0,1,0,0,1,0,0,0,0,1,0,0,0,0,0,0,1,0,1,0,1,0,1,0,1,0,1,"English","one_play_two_responses","stimulus21_A","orderSI=107","orderAI=66","0:4.4","66;",1,0,"A","A",1
"352","X_VHNXKCTPGY","English","0:31.9",1,0,0,0,0,0,0,0,0,1,0,0,0,1,0,0,1,1,0,0,0,0,1,0,50,"English",0,1,0,0,0,0,1,0,0,1,0,0,0,0,1,0,0,0,0,0,0,1,0,1,0,1,0,1,0,1,0,1,"English","one_play_two_responses","stimulus70_B","orderSI=90","orderAI=67","0:3.6","67;",0,1,"B","B",1
"353","X_VHNXKCTPGY","English","0:31.9",1,0,0,0,0,0,0,0,0,1,0,0,0,1,0,0,1,1,0,0,0,0,1,0,50,"English",0,1,0,0,0,0,1,0,0,1,0,0,0,0,1,0,0,0,0,0,0,1,0,1,0,1,0,1,0,1,0,1,"English","one_play_two_responses","stimulus113_A","orderSI=79","orderAI=68","0:6.6","68;",1,0,"A","A",1
"354","X_VHNXKCTPGY","English","0:31.9",1,0,0,0,0,0,0,0,0,1,0,0,0,1,0,0,1,1,0,0,0,0,1,0,50,"English",0,1,0,0,0,0,1,0,0,1,0,0,0,0,1,0,0,0,0,0,0,1,0,1,0,1,0,1,0,1,0,1,"English","one_play_two_responses","stimulus30_B","orderSI=98","orderAI=69","0:4.4","69;",0,1,"B","B",1
"355","X_VHNXKCTPGY","English","0:31.9",1,0,0,0,0,0,0,0,0,1,0,0,0,1,0,0,1,1,0,0,0,0,1,0,50,"English",0,1,0,0,0,0,1,0,0,1,0,0,0,0,1,0,0,0,0,0,0,1,0,1,0,1,0,1,0,1,0,1,"English","one_play_two_responses","stimulus27_B","orderSI=101","orderAI=70","0:4.4","70;",0,1,"B","B",1
"356","X_VHNXKCTPGY","English","0:31.9",1,0,0,0,0,0,0,0,0,1,0,0,0,1,0,0,1,1,0,0,0,0,1,0,50,"English",0,1,0,0,0,0,1,0,0,1,0,0,0,0,1,0,0,0,0,0,0,1,0,1,0,1,0,1,0,1,0,1,"English","one_play_two_responses","stimulus23_B","orderSI=105","orderAI=71","0:4.2","71;",0,1,"B","B",1
"357","X_VHNXKCTPGY","English","0:31.9",1,0,0,0,0,0,0,0,0,1,0,0,0,1,0,0,1,1,0,0,0,0,1,0,50,"English",0,1,0,0,0,0,1,0,0,1,0,0,0,0,1,0,0,0,0,0,0,1,0,1,0,1,0,1,0,1,0,1,"English","one_play_two_responses","stimulus19_B","orderSI=109","orderAI=72","0:5.6","72;",0,1,"B","B",1
"358","X_VHNXKCTPGY","English","0:31.9",1,0,0,0,0,0,0,0,0,1,0,0,0,1,0,0,1,1,0,0,0,0,1,0,50,"English",0,1,0,0,0,0,1,0,0,1,0,0,0,0,1,0,0,0,0,0,0,1,0,1,0,1,0,1,0,1,0,1,"English","one_play_two_responses","stimulus117_A","orderSI=75","orderAI=73","0:4.0","73;",1,0,"A","A",1
"359","X_VHNXKCTPGY","English","0:31.9",1,0,0,0,0,0,0,0,0,1,0,0,0,1,0,0,1,1,0,0,0,0,1,0,50,"English",0,1,0,0,0,0,1,0,0,1,0,0,0,0,1,0,0,0,0,0,0,1,0,1,0,1,0,1,0,1,0,1,"English","one_play_two_responses","stimulus128_A","orderSI=64","orderAI=74","0:4.9","74;",1,0,"A","A",1
"360","X_VHNXKCTPGY","English","0:31.9",1,0,0,0,0,0,0,0,0,1,0,0,0,1,0,0,1,1,0,0,0,0,1,0,50,"English",0,1,0,0,0,0,1,0,0,1,0,0,0,0,1,0,0,0,0,0,0,1,0,1,0,1,0,1,0,1,0,1,"English","one_play_two_responses","stimulus73_A","orderSI=87","orderAI=75","0:5.4","75;",1,0,"A","A",1
"361","X_VHNXKCTPGY","English","0:31.9",1,0,0,0,0,0,0,0,0,1,0,0,0,1,0,0,1,1,0,0,0,0,1,0,50,"English",0,1,0,0,0,0,1,0,0,1,0,0,0,0,1,0,0,0,0,0,0,1,0,1,0,1,0,1,0,1,0,1,"English","one_play_two_responses","stimulus78_B","orderSI=82","orderAI=76","0:4.4","76;",1,0,"A","B",0
"362","X_VHNXKCTPGY","English","0:31.9",1,0,0,0,0,0,0,0,0,1,0,0,0,1,0,0,1,1,0,0,0,0,1,0,50,"English",0,1,0,0,0,0,1,0,0,1,0,0,0,0,1,0,0,0,0,0,0,1,0,1,0,1,0,1,0,1,0,1,"English","one_play_two_responses","stimulus79_B","orderSI=81","orderAI=78","0:7.6","78;",1,0,"A","B",0
"363","X_VHNXKCTPGY","English","0:31.9",1,0,0,0,0,0,0,0,0,1,0,0,0,1,0,0,1,1,0,0,0,0,1,0,50,"English",0,1,0,0,0,0,1,0,0,1,0,0,0,0,1,0,0,0,0,0,0,1,0,1,0,1,0,1,0,1,0,1,"English","one_play_two_responses","stimulus68_A","orderSI=92","orderAI=79","0:7.1","79;",1,0,"A","A",1
"364","X_VHNXKCTPGY","English","0:31.9",1,0,0,0,0,0,0,0,0,1,0,0,0,1,0,0,1,1,0,0,0,0,1,0,50,"English",0,1,0,0,0,0,1,0,0,1,0,0,0,0,1,0,0,0,0,0,0,1,0,1,0,1,0,1,0,1,0,1,"English","one_play_two_responses","stimulus26_B","orderSI=102","orderAI=80","0:4.9","80;",0,1,"B","B",1
"365","X_VHNXKCTPGY","English","0:31.9",1,0,0,0,0,0,0,0,0,1,0,0,0,1,0,0,1,1,0,0,0,0,1,0,50,"English",0,1,0,0,0,0,1,0,0,1,0,0,0,0,1,0,0,0,0,0,0,1,0,1,0,1,0,1,0,1,0,1,"English","one_play_two_responses","stimulus20_A","orderSI=108","orderAI=81","0:4.8","81;",1,0,"A","A",1
"366","X_VHNXKCTPGY","English","0:31.9",1,0,0,0,0,0,0,0,0,1,0,0,0,1,0,0,1,1,0,0,0,0,1,0,50,"English",0,1,0,0,0,0,1,0,0,1,0,0,0,0,1,0,0,0,0,0,0,1,0,1,0,1,0,1,0,1,0,1,"English","one_play_two_responses","stimulus122_B","orderSI=70","orderAI=82","0:3.7","82;",0,1,"B","B",1
